File: Tarefas/Dados 3/Cu_alloys_database_2023_06_06.csv
Alloy formula;Alloy class;Cu;Al;Ag;B;Be;Ca;Co;Ce;Cr;Fe;Hf;La;Mg;Mn;Mo;Nb;Nd;Ni;P;Pb;Pr;Si;Sn;Ti;V;Zn;Zr;Tss (K);tss (h);CR reduction (%);Aging;Tag (K);tag (h);Secondary thermo-mechanical process;Hardness (HV);Yield strength (MPa);Ultimate tensile strength (MPa);Electrical conductivity (%IACS)
Cu-0.1Ag–0.3Cr;Cu low alloyed;99.6;0;0.1;0;0;0;0;0;0.3;0;0;0;0;0;0;0;0;0;0;0;0;0;0;0;0;0;0;1223;1;0;N;;;N;85;;;45
Cu-0.1Ag–0.3Cr;Cu low alloyed;99.6;0;0.1;0;0;0;0;0;0.3;0;0;0;0;0;0;0;0;0;0;0;0;0;0;0;0;0;0;1223;1;0;Y;673;4;N;112;;;74
Cu-0.1Ag–0.3Cr;Cu low alloyed;99.6;0;0.1;0;0;0;0;0;0.3;0;0;0;0;0;0;0;0;0;0;0;0;0;0;0;0;0;0;1223;1;0;Y;723;1;N;132;;;78
Cu-0.1Ag–0.3Cr;Cu low alloyed;99.6;0;0.1;0;0;0;0;0;0.3;0;0;0;0;0;0;0;0;0;0;0;0;0;0;0;0;0;0;1223;1;0;Y;823;0.25;N;115;;;81
Cu-0.1Ag–0.3Cr;Cu low alloyed;99.6;0;0.1;0;0;0;0;0;0.3;0;0;0;0;0;0;0;0;0;0;0;0;0;0;0;0;0;0;1223;1;0;Y;823;8;N;110;;;85
Cu-0.1Cr-0.06Zr;Cu low alloyed;99.84;0;0;0;0;0;0;0;0.1;0;0;0;0;0;0;0;0;0;0;0;0;0;0;0;0;0;0.06;1273;1;0;Y;523;1;N;78;;;59
Cu-0.1Cr-0.06Zr;Cu low alloyed;99.84;0;0;0;0;0;0;0;0.1;0;0;0;0;0;0;0;0;0;0;0;0;0;0;0;0;0;0.06;1273;1;0;Y;773;1;N;112;;;78
Cu-0.5Cr-0.08Zr;Cu low alloyed;99.42;0;0;0;0;0;0;0;0.5;0;0;0;0;0;0;0;0;0;0;0;0;0;0;0;0;0;0.08;1273;1;0;Y;523;1;N;75;;;37
Cu-0.5Cr-0.08Zr;Cu low alloyed;99.42;0;0;0;0;0;0;0;0.5;0;0;0;0;0;0;0;0;0;0;0;0;0;0;0;0;0;0.08;1273;1;0;Y;773;1;N;155;;;74
Cu-1Cr-0.1Zr;Cu low alloyed;98.9;0;0;0;0;0;0;0;1;0;0;0;0;0;0;0;0;0;0;0;0;0;0;0;0;0;0.1;1273;1;0;Y;523;1;N;81;;;38
Cu-1Cr-0.1Zr;Cu low alloyed;98.9;0;0;0;0;0;0;0;1;0;0;0;0;0;0;0;0;0;0;0;0;0;0;0;0;0;0.1;1273;1;0;Y;773;1;N;148;;;73
Cu-0.3Cr-0.5Zr;Cu low alloyed;99.2;0;0;0;0;0;0;0;0.3;0;0;0;0;0;0;0;0;0;0;0;0;0;0;0;0;0;0.5;1273;1;0;Y;523;1;N;84;;;32
Cu-0.3Cr-0.5Zr;Cu low alloyed;99.2;0;0;0;0;0;0;0;0.3;0;0;0;0;0;0;0;0;0;0;0;0;0;0;0;0;0;0.5;1273;1;0;Y;773;1;N;157;;;65
Cu-0.5Zr-0.065B;Cu low alloyed;99.435;0;0;0.065;0;0;0;0;0;0;0;0;0;0;0;0;0;0;0;0;0;0;0;0;0;0;0.5;1208;1;80;Y;603;4;N;;;516;74
Cu-0.5Zr-0.065B;Cu low alloyed;99.435;0;0;0.065;0;0;0;0;0;0;0;0;0;0;0;0;0;0;0;0;0;0;0;0;0;0;0.5;1208;1;80;Y;633;4;N;;;533;78
Cu-0.5Zr-0.065B;Cu low alloyed;99.435;0;0;0.065;0;0;0;0;0;0;0;0;0;0;0;0;0;0;0;0;0;0;0;0;0;0;0.5;1208;1;80;Y;663;4;N;;;524;78
Cu-0.5Zr-0.065B;Cu low alloyed;99.435;0;0;0.065;0;0;0;0;0;0;0;0;0;0;0;0;0;0;0;0;0;0;0;0;0;0;0.5;1208;1;80;Y;693;4;N;;;519;79
Cu-0.5Zr-0.065B;Cu low alloyed;99.435;0;0;0.065;0;0;0;0;0;0;0;0;0;0;0;0;0;0;0;0;0;0;0;0;0;0;0.5;1208;1;80;Y;723;4;N;;;517;80
Cu-0.5Zr-0.065B;Cu low alloyed;99.435;0;0;0.065;0;0;0;0;0;0;0;0;0;0;0;0;0;0;0;0;0;0;0;0;0;0;0.5;1208;1;80;Y;743;4;N;;;515;80
Cu-0.5Zr-0.065B;Cu low alloyed;99.435;0;0;0.065;0;0;0;0;0;0;0;0;0;0;0;0;0;0;0;0;0;0;0;0;0;0;0.5;1208;1;80;Y;743;2;Y;;459;551;79
Cu-0.22Fe-0.06P;Cu low alloyed;99.72;0;0;0;0;0;0;0;0;0.22;0;0;0;0;0;0;0;0;0;0;0;0;0;0;0;0;0;1173;1.167;50;Y;573;1;N;;415;442;68
Cu-0.22Fe-0.06P-0.02B-0.05Ce;Cu low alloyed;99.65;0;0;0.02;0;0;0;0.05;0;0.22;0;0;0;0;0;0;0;0;0;0;0;0;0;0;0;0;0;1173;1.167;50;Y;673;1;N;;470;515;80
Cu-0.4Cr;Cu low alloyed;99.6;0;0;0;0;0;0;0;0.4;0;0;0;0;0;0;0;0;0;0;0;0;0;0;0;0;0;0;;;80;Y;723;1;N;148;;;87
Cu-0.42Cr-0.18Zr;Cu low alloyed;99.4;0;0;0;0;0;0;0;0.42;0;0;0;0;0;0;0;0;0;0;0;0;0;0;0;0;0;0.18;;;80;N;;;N;147;;;44
Cu-0.42Cr-0.18Zr;Cu low alloyed;99.4;0;0;0;0;0;0;0;0.42;0;0;0;0;0;0;0;0;0;0;0;0;0;0;0;0;0;0.18;;;80;Y;823;1;N;144;;;87
Cu-0.39Cr-0.15Zr-0.12Ni-0.03Si;Cu low alloyed;99.31;0;0;0;0;0;0;0;0.39;0;0;0;0;0;0;0;0;0.12;0;0;0;0.03;0;0;0;0;0.15;;;80;Y;673;1;N;180;;;66
Cu-0.39Cr-0.15Zr-0.12Ni-0.03Si;Cu low alloyed;99.31;0;0;0;0;0;0;0;0.39;0;0;0;0;0;0;0;0;0.12;0;0;0;0.03;0;0;0;0;0.15;;;80;Y;923;1;N;87;;;81
Cu-0.4Cr;Cu low alloyed;99.6;0;0;0;0;0;0;0;0.4;0;0;0;0;0;0;0;0;0;0;0;0;0;0;0;0;0;0;;;80;Y;723;0.25;N;159;;;76
Cu-0.42Cr-0.18Zr;Cu low alloyed;99.4;0;0;0;0;0;0;0;0.42;0;0;0;0;0;0;0;0;0;0;0;0;0;0;0;0;0;0.18;;;80;Y;723;0.0417;N;160;;;54
Cu-0.42Cr-0.18Zr;Cu low alloyed;99.4;0;0;0;0;0;0;0;0.42;0;0;0;0;0;0;0;0;0;0;0;0;0;0;0;0;0;0.18;;;80;Y;723;1;N;174;;;84
Cu-0.39Cr-0.15Zr-0.12Ni-0.03Si;Cu low alloyed;99.31;0;0;0;0;0;0;0;0.39;0;0;0;0;0;0;0;0;0.12;0;0;0;0.03;0;0;0;0;0.15;;;80;Y;723;0.17;N;177;;;69
Cu-0.7Cr-0.3Fe;Cu low alloyed;99.05;0;0;0;0;0;0;0;0.68;0.27;0;0;0;0;0;0;0;0;0;0;0;0;0;0;0;0;0;1323;2;40;Y;723;6;N;;;390;73
Cu-0.7Cr-0.3Fe;Cu low alloyed;99.05;0;0;0;0;0;0;0;0.68;0.27;0;0;0;0;0;0;0;0;0;0;0;0;0;0;0;0;0;1323;2;90;Y;723;0.75;N;;;522;59
Cu-0.7Cr-2.0Fe;Cu low alloyed;97.52;0;0;0;0;0;0;0;0.63;1.85;0;0;0;0;0;0;0;0;0;0;0;0;0;0;0;0;0;1323;2;0;Y;873;3;N;75;;268;53
Cu-0.7Cr-2.0Fe;Cu low alloyed;97.52;0;0;0;0;0;0;0;0.63;1.85;0;0;0;0;0;0;0;0;0;0;0;0;0;0;0;0;0;1323;2;40;Y;873;0.333;N;;;311;51
Cu-0.7Cr-2.0Fe;Cu low alloyed;97.52;0;0;0;0;0;0;0;0.63;1.85;0;0;0;0;0;0;0;0;0;0;0;0;0;0;0;0;0;1323;2;90;Y;873;1.5;N;;;386;56
Cu-1Cr;Cu low alloyed;99.19;0;0;0;0;0;0;0;0.81;0;0;0;0;0;0;0;0;0;0;0;0;0;0;0;0;0;0;1323;2;40;Y;723;0.333;N;;;409;65
Cu-1Cr;Cu low alloyed;99.19;0;0;0;0;0;0;0;0.81;0;0;0;0;0;0;0;0;0;0;0;0;0;0;0;0;0;0;1323;2;90;Y;723;0.75;N;;;570;74
Cu-1Fe;Cu low alloyed;99;0;0;0;0;0;0;0;0.05;0.95;0;0;0;0;0;0;0;0;0;0;0;0;0;0;0;0;0;1323;2;40;Y;923;0.167;N;;;245;44
Cu-1Fe;Cu low alloyed;99;0;0;0;0;0;0;0;0.05;0.95;0;0;0;0;0;0;0;0;0;0;0;0;0;0;0;0;0;1323;2;40;Y;923;0.75;N;;;85;45
Cu-0.28Cr-0.19Mg;Cu low alloyed;99.53;0;0;0;0;0;0;0;0.28;0;0;0;0.19;0;0;0;0;0;0;0;0;0;0;0;0;0;0;1223;4;0;Y;663;0.0417;N;66;;;48
Cu-0.28Cr-0.19Mg;Cu low alloyed;99.53;0;0;0;0;0;0;0;0.28;0;0;0;0.19;0;0;0;0;0;0;0;0;0;0;0;0;0;0;1223;4;0;Y;663;1;N;77;;;55
Cu-0.28Cr-0.19Mg;Cu low alloyed;99.53;0;0;0;0;0;0;0;0.28;0;0;0;0.19;0;0;0;0;0;0;0;0;0;0;0;0;0;0;1223;4;0;Y;663;12;N;116;;;77
Cu-0.28Cr-0.19Mg;Cu low alloyed;99.53;0;0;0;0;0;0;0;0.28;0;0;0;0.19;0;0;0;0;0;0;0;0;0;0;0;0;0;0;1223;4;0;Y;693;0.167;N;67;;;48
Cu-0.28Cr-0.19Mg;Cu low alloyed;99.53;0;0;0;0;0;0;0;0.28;0;0;0;0.19;0;0;0;0;0;0;0;0;0;0;0;0;0;0;1223;4;0;Y;693;4;N;124;;;79
Cu-0.28Cr-0.19Mg;Cu low alloyed;99.53;0;0;0;0;0;0;0;0.28;0;0;0;0.19;0;0;0;0;0;0;0;0;0;0;0;0;0;0;1223;4;0;Y;723;0.0167;N;65;;;47
Cu-0.28Cr-0.19Mg;Cu low alloyed;99.53;0;0;0;0;0;0;0;0.28;0;0;0;0.19;0;0;0;0;0;0;0;0;0;0;0;0;0;0;1223;4;0;Y;723;0.5;N;118;;;71
Cu-0.28Cr-0.19Mg;Cu low alloyed;99.53;0;0;0;0;0;0;0;0.28;0;0;0;0.19;0;0;0;0;0;0;0;0;0;0;0;0;0;0;1223;4;0;Y;723;8;N;123;;;83
Cu-0.28Cr-0.19Mg;Cu low alloyed;99.53;0;0;0;0;0;0;0;0.28;0;0;0;0.19;0;0;0;0;0;0;0;0;0;0;0;0;0;0;1223;4;0;Y;753;0.0833;N;73;;;48
Cu-0.28Cr-0.19Mg;Cu low alloyed;99.53;0;0;0;0;0;0;0;0.28;0;0;0;0.19;0;0;0;0;0;0;0;0;0;0;0;0;0;0;1223;4;0;Y;753;2;N;112;;;82
Cu-0.28Cr-0.19Mg;Cu low alloyed;99.53;0;0;0;0;0;0;0;0.28;0;0;0;0.19;0;0;0;0;0;0;0;0;0;0;0;0;0;0;1223;4;0;Y;783;0.0083;N;64;;;46
Cu-0.28Cr-0.19Mg;Cu low alloyed;99.53;0;0;0;0;0;0;0;0.28;0;0;0;0.19;0;0;0;0;0;0;0;0;0;0;0;0;0;0;1223;4;0;Y;783;0.25;N;77;;;54
Cu-0.28Cr-0.19Mg;Cu low alloyed;99.53;0;0;0;0;0;0;0;0.28;0;0;0;0.19;0;0;0;0;0;0;0;0;0;0;0;0;0;0;1223;4;0;Y;783;6;N;89;;;88
Cu-1.3Ni-1.4Co-0.56Si-0.03Mg;Cu-Ni-Si alloys;83.05;0.2;0;0;0;0;1.4;0;0;0;0;0;0.02;0;0;0;0;1.4;0;0;0;0.64;0;0;0;0;0;1248;2;0;Y;823;1;N;276;;;40
Cu-1.3Ni-1.4Co-0.56Si-0.03Mg;Cu-Ni-Si alloys;89.83;0;0;0;0;0;1.1;0;0;0;0;0;0.1;0;0;0;0;1.2;0.03;0;0;0.55;0;0;0;0;0;1248;2;0;Y;773;4;N;258;;;43
Cu-1.3Ni-1.4Co-0.56Si-0.03Mg;Cu-Ni-Si alloys;89.69;0;0;0;0;0;1.5;0;0;0;0;0;0.04;0;0;0;0;1.2;0.05;0;0;0.64;0;0;0;0.2;0;1248;2;0;Y;773;4;N;249;;;45
Cu-6Ni-1.4Si-0.1Ti;Cu-Ni-Si alloys;92.35;0;0;0;0;0;0;0;0;0;0;0;0;0;0;0;0;6.2;0;0;0;1.34;0;0.11;0;0;0;1253;2;0;Y;773;1;N;226;;;38
Cu-6Ni-1.5Si;Cu-Ni-Si alloys;92.62;0;0;0;0;0;0;0;0;0;0;0;0;0;0;0;0;5.94;0;0;0;1.44;0;0;0;0;0;1253;2;0;Y;773;7;N;177;;630;46
Cu-6Ni-1.5Si;Cu-Ni-Si alloys;92.62;0;0;0;0;0;0;0;0;0;0;0;0;0;0;0;0;5.94;0;0;0;1.44;0;0;0;0;0;1253;2;0;Y;773;3;N;278;;;34
Cu-3.3Ni-1Si-0.8Cr-0.09Mg;Cu-Ni-Si alloys;94.754;0;0;0;0;0;0;0;0.85;0;0;0;0.09;0;0;0;0;3.3;0;0;0;1;0;0;0;0.006;0;923;5;93.4;N;;;N;218;676;718;14
Cu-3.3Ni-1Si-0.8Cr-0.09Mg;Cu-Ni-Si alloys;94.754;0;0;0;0;0;0;0;0.85;0;0;0;0.09;0;0;0;0;3.3;0;0;0;1;0;0;0;0.006;0;923;5;64.3;Y;773;2;Y;271;697;855;17
Cu-3.3Ni-1Si-0.8Cr-0.09Mg;Cu-Ni-Si alloys;94.754;0;0;0;0;0;0;0;0.85;0;0;0;0.09;0;0;0;0;3.3;0;0;0;1;0;0;0;0.006;0;923;5;64.3;Y;773;2;Y;275;767;842;20
Cu-2.1Ni–0.5Si–0.2Zr;Cu-Ni-Si alloys;97.18;0;0;0;0;0;0;0;0;0;0;0;0;0;0;0;0;2.11;0;0;0;0.53;0;0;0;0;0.18;1193;1.5;70;Y;673;2;N;;;629;33
Cu-2.1Ni–0.5Si–0.2Zr;Cu-Ni-Si alloys;97.18;0;0;0;0;0;0;0;0;0;0;0;0;0;0;0;0;2.11;0;0;0;0.53;0;0;0;0;0.18;1193;1.5;70;Y;723;0.5;N;;;591;31
Cu-2.1Ni–0.5Si–0.2Zr;Cu-Ni-Si alloys;97.18;0;0;0;0;0;0;0;0;0;0;0;0;0;0;0;0;2.11;0;0;0;0.53;0;0;0;0;0.18;1193;1.5;70;Y;723;12;N;;;531;42
Cu-2.1Ni–0.5Si–0.2Zr;Cu-Ni-Si alloys;97.18;0;0;0;0;0;0;0;0;0;0;0;0;0;0;0;0;2.11;0;0;0;0.53;0;0;0;0;0.18;1193;1.5;70;Y;773;4;N;;;528;45
Cu-6Ni-1.4Si-0.15Mg-0.1Cr;Cu-Ni-Si alloys;92.35;0;0;0;0;0;0;0;0.1;0;0;0;0.15;0;0;0;0;6;0;0;0;1.4;0;0;0;0;0;1243;4;0;Y;673;0.167;N;269;;;23
Cu-6Ni-1.4Si-0.15Mg-0.1Cr;Cu-Ni-Si alloys;92.35;0;0;0;0;0;0;0;0.1;0;0;0;0.15;0;0;0;0;6;0;0;0;1.4;0;0;0;0;0;1243;4;0;Y;673;2;N;287;;;30
Cu-6Ni-1.4Si-0.15Mg-0.1Cr;Cu-Ni-Si alloys;92.35;0;0;0;0;0;0;0;0.1;0;0;0;0.15;0;0;0;0;6;0;0;0;1.4;0;0;0;0;0;1243;4;0;Y;673;10;N;298;;;34
Cu-6Ni-1.4Si-0.15Mg-0.1Cr;Cu-Ni-Si alloys;92.35;0;0;0;0;0;0;0;0.1;0;0;0;0.15;0;0;0;0;6;0;0;0;1.4;0;0;0;0;0;1243;4;0;Y;673;20;N;296;;;35
Cu-6Ni-1.4Si-0.15Mg-0.1Cr;Cu-Ni-Si alloys;92.35;0;0;0;0;0;0;0;0.1;0;0;0;0.15;0;0;0;0;6;0;0;0;1.4;0;0;0;0;0;1243;4;0;Y;723;1;N;294;;;33
Cu-6Ni-1.4Si-0.15Mg-0.1Cr;Cu-Ni-Si alloys;92.35;0;0;0;0;0;0;0;0.1;0;0;0;0.15;0;0;0;0;6;0;0;0;1.4;0;0;0;0;0;1243;4;0;Y;723;5;N;298;;;36
Cu-6Ni-1.4Si-0.15Mg-0.1Cr;Cu-Ni-Si alloys;92.35;0;0;0;0;0;0;0;0.1;0;0;0;0.15;0;0;0;0;6;0;0;0;1.4;0;0;0;0;0;1243;4;0;Y;723;15;N;291;;;38
Cu-6Ni-1.4Si-0.15Mg-0.1Cr;Cu-Ni-Si alloys;92.35;0;0;0;0;0;0;0;0.1;0;0;0;0.15;0;0;0;0;6;0;0;0;1.4;0;0;0;0;0;1243;4;0;Y;773;0.167;N;286;;;30
Cu-6Ni-1.4Si-0.15Mg-0.1Cr;Cu-Ni-Si alloys;92.35;0;0;0;0;0;0;0;0.1;0;0;0;0.15;0;0;0;0;6;0;0;0;1.4;0;0;0;0;0;1243;4;0;Y;773;1.5;N;289;;;35
Cu-6Ni-1.4Si-0.15Mg-0.1Cr;Cu-Ni-Si alloys;92.35;0;0;0;0;0;0;0;0.1;0;0;0;0.15;0;0;0;0;6;0;0;0;1.4;0;0;0;0;0;1243;4;0;Y;773;8;N;273;;;38
Cu-6Ni-1.4Si-0.15Mg-0.1Cr;Cu-Ni-Si alloys;92.35;0;0;0;0;0;0;0;0.1;0;0;0;0.15;0;0;0;0;6;0;0;0;1.4;0;0;0;0;0;1243;4;50;N;;;N;259;;;15
Cu-6Ni-1.4Si-0.15Mg-0.1Cr;Cu-Ni-Si alloys;92.35;0;0;0;0;0;0;0;0.1;0;0;0;0.15;0;0;0;0;6;0;0;0;1.4;0;0;0;0;0;1243;4;50;Y;723;1.5;N;337;;;32
Cu-6Ni-1.4Si-0.15Mg-0.1Cr;Cu-Ni-Si alloys;92.35;0;0;0;0;0;0;0;0.1;0;0;0;0.15;0;0;0;0;6;0;0;0;1.4;0;0;0;0;0;1243;4;50;Y;723;7;N;309;;;38
Cu-6Ni-1.4Si-0.15Mg-0.1Cr;Cu-Ni-Si alloys;92.35;0;0;0;0;0;0;0;0.1;0;0;0;0.15;0;0;0;0;6;0;0;0;1.4;0;0;0;0;0;1243;4;50;Y;723;17;N;268;;;42
Cu-6Ni-1.4Si-0.15Mg-0.1Cr;Cu-Ni-Si alloys;92.35;0;0;0;0;0;0;0;0.1;0;0;0;0.15;0;0;0;0;6;0;0;0;1.4;0;0;0;0;0;1243;4;80;Y;723;0.167;N;331;;;30
Cu-6Ni-1.4Si-0.15Mg-0.1Cr;Cu-Ni-Si alloys;92.35;0;0;0;0;0;0;0;0.1;0;0;0;0.15;0;0;0;0;6;0;0;0;1.4;0;0;0;0;0;1243;4;80;Y;723;1.5;N;320;;;36
Cu-6Ni-1.4Si-0.15Mg-0.1Cr;Cu-Ni-Si alloys;92.35;0;0;0;0;0;0;0;0.1;0;0;0;0.15;0;0;0;0;6;0;0;0;1.4;0;0;0;0;0;1243;4;80;Y;723;7;N;296;;;41
Cu-6Ni-1.4Si-0.15Mg-0.1Cr;Cu-Ni-Si alloys;92.35;0;0;0;0;0;0;0;0.1;0;0;0;0.15;0;0;0;0;6;0;0;0;1.4;0;0;0;0;0;1243;4;80;Y;723;17;N;264;;;46
Cu-6Ni-1.0Si-0.5Al-0.15Mg-0.1Cr;Cu-Ni-Si alloys;92.25;0.5;0;0;0;0;0;0;0.1;0;0;0;0.15;0;0;0;0;6;0;0;0;1;0;0;0;0;0;1243;4;0;N;;;N;261;;;15
Cu-6Ni-1.0Si-0.5Al-0.15Mg-0.1Cr;Cu-Ni-Si alloys;92.25;0.5;0;0;0;0;0;0;0.1;0;0;0;0.15;0;0;0;0;6;0;0;0;1;0;0;0;0;0;1243;4;0;Y;673;4.5;N;295;;;27
Cu-6Ni-1.0Si-0.5Al-0.15Mg-0.1Cr;Cu-Ni-Si alloys;92.25;0.5;0;0;0;0;0;0;0.1;0;0;0;0.15;0;0;0;0;6;0;0;0;1;0;0;0;0;0;1243;4;0;Y;673;14;N;298;;;30
Cu-6Ni-1.0Si-0.5Al-0.15Mg-0.1Cr;Cu-Ni-Si alloys;92.25;0.5;0;0;0;0;0;0;0.1;0;0;0;0.15;0;0;0;0;6;0;0;0;1;0;0;0;0;0;1243;4;0;Y;723;0.5;N;285;;;23
Cu-6Ni-1.0Si-0.5Al-0.15Mg-0.1Cr;Cu-Ni-Si alloys;92.25;0.5;0;0;0;0;0;0;0.1;0;0;0;0.15;0;0;0;0;6;0;0;0;1;0;0;0;0;0;1243;4;0;Y;723;6;N;303;;;32
Cu-6Ni-1.0Si-0.5Al-0.15Mg-0.1Cr;Cu-Ni-Si alloys;92.25;0.5;0;0;0;0;0;0;0.1;0;0;0;0.15;0;0;0;0;6;0;0;0;1;0;0;0;0;0;1243;4;0;Y;723;16;N;288;;;35
Cu-6Ni-1.0Si-0.5Al-0.15Mg-0.1Cr;Cu-Ni-Si alloys;92.25;0.5;0;0;0;0;0;0;0.1;0;0;0;0.15;0;0;0;0;6;0;0;0;1;0;0;0;0;0;1243;4;0;Y;773;1;N;302;;;31
Cu-6Ni-1.0Si-0.5Al-0.15Mg-0.1Cr;Cu-Ni-Si alloys;92.25;0.5;0;0;0;0;0;0;0.1;0;0;0;0.15;0;0;0;0;6;0;0;0;1;0;0;0;0;0;1243;4;0;Y;773;8;N;285;;;35
Cu-6Ni-1.0Si-0.5Al-0.15Mg-0.1Cr;Cu-Ni-Si alloys;92.25;0.5;0;0;0;0;0;0;0.1;0;0;0;0.15;0;0;0;0;6;0;0;0;1;0;0;0;0;0;1243;4;0;Y;773;18;N;272;;;38
Cu-6Ni-1.0Si-0.5Al-0.15Mg-0.1Cr;Cu-Ni-Si alloys;92.25;0.5;0;0;0;0;0;0;0.1;0;0;0;0.15;0;0;0;0;6;0;0;0;1;0;0;0;0;0;1243;4;50;Y;723;0.667;N;339;;;26
Cu-6Ni-1.0Si-0.5Al-0.15Mg-0.1Cr;Cu-Ni-Si alloys;92.25;0.5;0;0;0;0;0;0;0.1;0;0;0;0.15;0;0;0;0;6;0;0;0;1;0;0;0;0;0;1243;4;50;Y;723;4;N;331;;;30
Cu-6Ni-1.0Si-0.5Al-0.15Mg-0.1Cr;Cu-Ni-Si alloys;92.25;0.5;0;0;0;0;0;0;0.1;0;0;0;0.15;0;0;0;0;6;0;0;0;1;0;0;0;0;0;1243;4;50;Y;723;13;N;311;;;33
Cu-6Ni-1.0Si-0.5Al-0.15Mg-0.1Cr;Cu-Ni-Si alloys;92.25;0.5;0;0;0;0;0;0;0.1;0;0;0;0.15;0;0;0;0;6;0;0;0;1;0;0;0;0;0;1243;4;50;Y;723;27;N;285;;;34
Cu-6Ni-1.0Si-0.5Al-0.15Mg-0.1Cr;Cu-Ni-Si alloys;92.25;0.5;0;0;0;0;0;0;0.1;0;0;0;0.15;0;0;0;0;6;0;0;0;1;0;0;0;0;0;1243;4;80;Y;723;0.667;N;344;;;29
Cu-6Ni-1.0Si-0.5Al-0.15Mg-0.1Cr;Cu-Ni-Si alloys;92.25;0.5;0;0;0;0;0;0;0.1;0;0;0;0.15;0;0;0;0;6;0;0;0;1;0;0;0;0;0;1243;4;80;Y;723;4;N;333;;;32
Cu-6Ni-1.0Si-0.5Al-0.15Mg-0.1Cr;Cu-Ni-Si alloys;92.25;0.5;0;0;0;0;0;0;0.1;0;0;0;0.15;0;0;0;0;6;0;0;0;1;0;0;0;0;0;1243;4;80;Y;723;13;N;315;;;34
Cu-6Ni-1.0Si-0.5Al-0.15Mg-0.1Cr;Cu-Ni-Si alloys;92.25;0.5;0;0;0;0;0;0;0.1;0;0;0;0.15;0;0;0;0;6;0;0;0;1;0;0;0;0;0;1243;4;80;Y;723;27;N;291;;;36
Cu-6Ni-1Si-0.5Al-0.15Mg-0.1Cr;Cu-Ni-Si alloys;92.25;0.5;0;0;0;0;0;0;0.1;0;0;0;0.15;0;0;0;0;6;0;0;0;1;0;0;0;0;0;1243;6;50;Y;723;5;N;334;;;29
Cu-6Ni-1Si-0.5Al-0.15Mg-0.1Cr;Cu-Ni-Si alloys;92.25;0.5;0;0;0;0;0;0;0.1;0;0;0;0.15;0;0;0;0;6;0;0;0;1;0;0;0;0;0;1243;6;50;Y;723;20;N;305;;;31
Cu-6Ni-1Si-0.5Al-0.15Mg-0.1Cr;Cu-Ni-Si alloys;92.25;0.5;0;0;0;0;0;0;0.1;0;0;0;0.15;0;0;0;0;6;0;0;0;1;0;0;0;0;0;1243;6;50;Y;773;5;N;266;;;31
Cu-6Ni-1Si-0.5Al;Cu-Ni-Si alloys;92.25;0.5;0;0;0;0;0;0;0.1;0;0;0;0.15;0;0;0;0;6;0;0;0;1;0;0;0;0;0;1253;4;55;Y;723;0.2167;Y;381;;1156;25
Cu-6Ni-1Si-0.5Al;Cu-Ni-Si alloys;92.25;0.5;0;0;0;0;0;0;0.1;0;0;0;0.15;0;0;0;0;6;0;0;0;1;0;0;0;0;0;1253;4;60;Y;723;0.17;Y;373;;;25
Cu-6Ni-1Si-0.5Al;Cu-Ni-Si alloys;92.25;0.5;0;0;0;0;0;0;0.1;0;0;0;0.15;0;0;0;0;6;0;0;0;1;0;0;0;0;0;1253;4;60;Y;773;0.5;Y;287;;;28
Cu-6Ni-1Si-0.5Al;Cu-Ni-Si alloys;92.25;0.5;0;0;0;0;0;0;0.1;0;0;0;0.15;0;0;0;0;6;0;0;0;1;0;0;0;0;0;1253;4;80;Y;673;1;Y;365;;;13
Cu-6Ni-1Si-0.5Al;Cu-Ni-Si alloys;92.25;0.5;0;0;0;0;0;0;0.1;0;0;0;0.15;0;0;0;0;6;0;0;0;1;0;0;0;0;0;1253;4;80;Y;723;2;Y;325;;;20
Cu-6Ni-1Si-0.5Al;Cu-Ni-Si alloys;92.25;0.5;0;0;0;0;0;0;0.1;0;0;0;0.15;0;0;0;0;6;0;0;0;1;0;0;0;0;0;1253;4;80;Y;673;0.17;Y;357;;;21
Cu-6Ni-1Si-0.5Al;Cu-Ni-Si alloys;92.25;0.5;0;0;0;0;0;0;0.1;0;0;0;0.15;0;0;0;0;6;0;0;0;1;0;0;0;0;0;1253;4;80;Y;673;3;Y;353;;;25
Cu-6Ni-1Si-0.5Al;Cu-Ni-Si alloys;92.25;0.5;0;0;0;0;0;0;0.1;0;0;0;0.15;0;0;0;0;6;0;0;0;1;0;0;0;0;0;1253;4;80;Y;723;2;Y;342;;;29
Cu-6Ni-1Si-0.5Al;Cu-Ni-Si alloys;92.25;0.5;0;0;0;0;0;0;0.1;0;0;0;0.15;0;0;0;0;6;0;0;0;1;0;0;0;0;0;1253;4;80;Y;773;1.5;Y;266;;;
Cu-6Ni-1Si-0.5Al;Cu-Ni-Si alloys;92.25;0.5;0;0;0;0;0;0;0.1;0;0;0;0.15;0;0;0;0;6;0;0;0;1;0;0;0;0;0;1253;4;0;Y;673;0.25;N;222;;;25
Cu-6Ni-1Si-0.5Al;Cu-Ni-Si alloys;92.25;0.5;0;0;0;0;0;0;0.1;0;0;0;0.15;0;0;0;0;6;0;0;0;1;0;0;0;0;0;1253;4;0;Y;673;2;N;243;;;35
Cu-6Ni-1Si-0.5Al;Cu-Ni-Si alloys;92.25;0.5;0;0;0;0;0;0;0.1;0;0;0;0.15;0;0;0;0;6;0;0;0;1;0;0;0;0;0;1253;4;0;Y;673;8;N;217;;;46
Cu-6Ni-1Si-0.5Al;Cu-Ni-Si alloys;92.25;0.5;0;0;0;0;0;0;0.1;0;0;0;0.15;0;0;0;0;6;0;0;0;1;0;0;0;0;0;1253;4;0;Y;723;1;N;247;;;39
Cu-6Ni-1Si-0.5Al;Cu-Ni-Si alloys;92.25;0.5;0;0;0;0;0;0;0.1;0;0;0;0.15;0;0;0;0;6;0;0;0;1;0;0;0;0;0;1253;4;0;Y;723;5;N;204;;;50
Cu-6Ni-1Si-0.5Al;Cu-Ni-Si alloys;92.25;0.5;0;0;0;0;0;0;0.1;0;0;0;0.15;0;0;0;0;6;0;0;0;1;0;0;0;0;0;1253;4;0;Y;773;0.5;N;222;;;41
Cu-6Ni-1Si-0.5Al;Cu-Ni-Si alloys;92.25;0.5;0;0;0;0;0;0;0.1;0;0;0;0.15;0;0;0;0;6;0;0;0;1;0;0;0;0;0;1253;4;0;Y;773;3;N;141;;;55
Cu-6Ni-1Si-0.5Al;Cu-Ni-Si alloys;92.25;0.5;0;0;0;0;0;0;0.1;0;0;0;0.15;0;0;0;0;6;0;0;0;1;0;0;0;0;0;1253;4;50;N;;;Y;251;;;30
Cu-6Ni-1Si-0.5Al;Cu-Ni-Si alloys;92.25;0.5;0;0;0;0;0;0;0.1;0;0;0;0.15;0;0;0;0;6;0;0;0;1;0;0;0;0;0;1253;4;50;Y;673;1;Y;243;;;42
Cu-6Ni-1Si-0.5Al;Cu-Ni-Si alloys;92.25;0.5;0;0;0;0;0;0;0.1;0;0;0;0.15;0;0;0;0;6;0;0;0;1;0;0;0;0;0;1253;4;50;Y;673;5;Y;199;;;57
Cu-6Ni-1Si-0.5Al;Cu-Ni-Si alloys;92.25;0.5;0;0;0;0;0;0;0.1;0;0;0;0.15;0;0;0;0;6;0;0;0;1;0;0;0;0;0;1253;4;50;Y;723;0.5;Y;229;;;46
Cu-6Ni-1Si-0.5Al;Cu-Ni-Si alloys;92.25;0.5;0;0;0;0;0;0;0.1;0;0;0;0.15;0;0;0;0;6;0;0;0;1;0;0;0;0;0;1253;4;50;Y;723;3;Y;180;;;58
Cu-6Ni-1Si-0.5Al;Cu-Ni-Si alloys;92.25;0.5;0;0;0;0;0;0;0.1;0;0;0;0.15;0;0;0;0;6;0;0;0;1;0;0;0;0;0;1253;4;50;Y;773;0.083;Y;216;;;43
Cu-6Ni-1Si-0.5Al;Cu-Ni-Si alloys;92.25;0.5;0;0;0;0;0;0;0.1;0;0;0;0.15;0;0;0;0;6;0;0;0;1;0;0;0;0;0;1253;4;50;Y;773;1.5;Y;148;;;55
Cu-6Ni-1Si-0.5Al;Cu-Ni-Si alloys;92.25;0.5;0;0;0;0;0;0;0.1;0;0;0;0.15;0;0;0;0;6;0;0;0;1;0;0;0;0;0;1253;4;50;Y;773;6;Y;141;;;56
Cu-6Ni-1Si-0.5Al;Cu-Ni-Si alloys;92.25;0.5;0;0;0;0;0;0;0.1;0;0;0;0.15;0;0;0;0;6;0;0;0;1;0;0;0;0;0;1253;4;50;Y;823;0.75;Y;141;;;48
Cu-6Ni-1Si-0.5Al;Cu-Ni-Si alloys;92.25;0.5;0;0;0;0;0;0;0.1;0;0;0;0.15;0;0;0;0;6;0;0;0;1;0;0;0;0;0;1253;4;50;Y;823;4;Y;133;;;49
Cu-6Ni-1Si-0.5Al;Cu-Ni-Si alloys;92.25;0.5;0;0;0;0;0;0;0.1;0;0;0;0.15;0;0;0;0;6;0;0;0;1;0;0;0;0;0;1253;4;50;Y;673;0.083;Y;254;;;41
Cu-6Ni-1Si-0.5Al;Cu-Ni-Si alloys;92.25;0.5;0;0;0;0;0;0;0.1;0;0;0;0.15;0;0;0;0;6;0;0;0;1;0;0;0;0;0;1253;4;50;Y;673;1.5;Y;210;;;54
Cu-6Ni-1Si-0.5Al;Cu-Ni-Si alloys;92.25;0.5;0;0;0;0;0;0;0.1;0;0;0;0.15;0;0;0;0;6;0;0;0;1;0;0;0;0;0;1253;4;50;Y;673;6;Y;168;;;62
Cu-6Ni-1Si-0.5Al;Cu-Ni-Si alloys;92.25;0.5;0;0;0;0;0;0;0.1;0;0;0;0.15;0;0;0;0;6;0;0;0;1;0;0;0;0;0;1253;4;50;Y;723;0.75;Y;188;;;55
Cu-6Ni-1Si-0.5Al;Cu-Ni-Si alloys;92.25;0.5;0;0;0;0;0;0;0.1;0;0;0;0.15;0;0;0;0;6;0;0;0;1;0;0;0;0;0;1253;4;50;Y;723;4;Y;156;;;61
Cu-6Ni-1Si-0.5Al;Cu-Ni-Si alloys;92.25;0.5;0;0;0;0;0;0;0.1;0;0;0;0.15;0;0;0;0;6;0;0;0;1;0;0;0;0;0;1253;4;50;Y;773;0.25;Y;180;;;52
Cu-6Ni-1Si-0.5Al;Cu-Ni-Si alloys;92.25;0.5;0;0;0;0;0;0;0.1;0;0;0;0.15;0;0;0;0;6;0;0;0;1;0;0;0;0;0;1253;4;50;Y;773;2;Y;145;;;56
Cu-6Ni-1Si-0.5Al;Cu-Ni-Si alloys;92.25;0.5;0;0;0;0;0;0;0.1;0;0;0;0.15;0;0;0;0;6;0;0;0;1;0;0;0;0;0;1253;4;50;Y;773;8;Y;140;;;57
Cu-6Ni-1Si-0.5Al;Cu-Ni-Si alloys;92.25;0.5;0;0;0;0;0;0;0.1;0;0;0;0.15;0;0;0;0;6;0;0;0;1;0;0;0;0;0;1253;4;50;Y;823;1;Y;140;;;49
Cu-6Ni-1Si-0.5Al;Cu-Ni-Si alloys;92.25;0.5;0;0;0;0;0;0;0.1;0;0;0;0.15;0;0;0;0;6;0;0;0;1;0;0;0;0;0;1253;4;50;Y;823;5;Y;132;;;50
Cu-6Ni-1Si-0.5Al;Cu-Ni-Si alloys;92.25;0.5;0;0;0;0;0;0;0.1;0;0;0;0.15;0;0;0;0;6;0;0;0;1;0;0;0;0;0;1253;4;50;Y;673;0.25;Y;225;;;48
Cu-6Ni-1Si-0.5Al;Cu-Ni-Si alloys;92.25;0.5;0;0;0;0;0;0;0.1;0;0;0;0.15;0;0;0;0;6;0;0;0;1;0;0;0;0;0;1253;4;50;Y;673;2;Y;214;;;55
Cu-6Ni-1Si-0.5Al;Cu-Ni-Si alloys;92.25;0.5;0;0;0;0;0;0;0.1;0;0;0;0.15;0;0;0;0;6;0;0;0;1;0;0;0;0;0;1253;4;50;Y;673;8;Y;184;;;63
Cu-6Ni-1Si-0.5Al;Cu-Ni-Si alloys;92.25;0.5;0;0;0;0;0;0;0.1;0;0;0;0.15;0;0;0;0;6;0;0;0;1;0;0;0;0;0;1253;4;50;Y;723;1;Y;196;;;55
Cu-6Ni-1Si-0.5Al;Cu-Ni-Si alloys;92.25;0.5;0;0;0;0;0;0;0.1;0;0;0;0.15;0;0;0;0;6;0;0;0;1;0;0;0;0;0;1253;4;50;Y;723;5;Y;154;;;62
Cu-6Ni-1Si-0.5Al;Cu-Ni-Si alloys;92.25;0.5;0;0;0;0;0;0;0.1;0;0;0;0.15;0;0;0;0;6;0;0;0;1;0;0;0;0;0;1253;4;50;Y;773;0.5;Y;176;;;55
Cu-6Ni-1Si-0.5Al;Cu-Ni-Si alloys;92.25;0.5;0;0;0;0;0;0;0.1;0;0;0;0.15;0;0;0;0;6;0;0;0;1;0;0;0;0;0;1253;4;50;Y;773;3;Y;137;;;57
Cu-6Ni-1Si-0.5Al;Cu-Ni-Si alloys;92.25;0.5;0;0;0;0;0;0;0.1;0;0;0;0.15;0;0;0;0;6;0;0;0;1;0;0;0;0;0;1253;4;50;Y;823;0.083;Y;155;;;48
Cu-6Ni-1Si-0.5Al;Cu-Ni-Si alloys;92.25;0.5;0;0;0;0;0;0;0.1;0;0;0;0.15;0;0;0;0;6;0;0;0;1;0;0;0;0;0;1253;4;50;Y;823;1.5;Y;130;;;49
Cu-6Ni-1Si-0.5Al;Cu-Ni-Si alloys;92.25;0.5;0;0;0;0;0;0;0.1;0;0;0;0.15;0;0;0;0;6;0;0;0;1;0;0;0;0;0;1253;4;50;Y;823;6;Y;125;;;50
Cu-6Ni-1Si-0.5Al;Cu-Ni-Si alloys;92.25;0.5;0;0;0;0;0;0;0.1;0;0;0;0.15;0;0;0;0;6;0;0;0;1;0;0;0;0;0;1253;4;50;Y;673;0.5;Y;344;;;27
Cu-6Ni-1Si-0.5Al;Cu-Ni-Si alloys;92.25;0.5;0;0;0;0;0;0;0.1;0;0;0;0.15;0;0;0;0;6;0;0;0;1;0;0;0;0;0;1253;4;50;Y;673;3;Y;336;;;29
Cu-6Ni-1Si-0.5Al;Cu-Ni-Si alloys;92.25;0.5;0;0;0;0;0;0;0.1;0;0;0;0.15;0;0;0;0;6;0;0;0;1;0;0;0;0;0;1253;4;50;Y;723;0.083;Y;336;;;26
Cu-6Ni-1Si-0.5Al;Cu-Ni-Si alloys;92.25;0.5;0;0;0;0;0;0;0.1;0;0;0;0.15;0;0;0;0;6;0;0;0;1;0;0;0;0;0;1253;4;50;Y;723;1.5;Y;309;;;31
Cu-6Ni-1Si-0.5Al;Cu-Ni-Si alloys;92.25;0.5;0;0;0;0;0;0;0.1;0;0;0;0.15;0;0;0;0;6;0;0;0;1;0;0;0;0;0;1253;4;50;Y;723;6;Y;264;;;36
Cu-6Ni-1Si-0.5Al;Cu-Ni-Si alloys;92.25;0.5;0;0;0;0;0;0;0.1;0;0;0;0.15;0;0;0;0;6;0;0;0;1;0;0;0;0;0;1253;4;50;Y;773;0.75;Y;272;;;30
Cu-6Ni-1Si-0.5Al;Cu-Ni-Si alloys;92.25;0.5;0;0;0;0;0;0;0.1;0;0;0;0.15;0;0;0;0;6;0;0;0;1;0;0;0;0;0;1253;4;50;Y;773;4;Y;215;;;36
Cu-6Ni-1Si-0.5Al;Cu-Ni-Si alloys;92.25;0.5;0;0;0;0;0;0;0.1;0;0;0;0.15;0;0;0;0;6;0;0;0;1;0;0;0;0;0;1253;4;50;Y;823;0.25;Y;235;;;31
Cu-6Ni-1Si-0.5Al;Cu-Ni-Si alloys;92.25;0.5;0;0;0;0;0;0;0.1;0;0;0;0.15;0;0;0;0;6;0;0;0;1;0;0;0;0;0;1253;4;50;Y;823;2;Y;185;;;36
Cu-6Ni-1Si-0.5Al;Cu-Ni-Si alloys;92.25;0.5;0;0;0;0;0;0;0.1;0;0;0;0.15;0;0;0;0;6;0;0;0;1;0;0;0;0;0;1253;4;50;Y;823;8;Y;155;;;36
Cu-6Ni-1Si-0.5Al;Cu-Ni-Si alloys;92.25;0.5;0;0;0;0;0;0;0.1;0;0;0;0.15;0;0;0;0;6;0;0;0;1;0;0;0;0;0;1253;4;50;Y;673;0.75;Y;314;;;34
Cu-6Ni-1Si-0.5Al;Cu-Ni-Si alloys;92.25;0.5;0;0;0;0;0;0;0.1;0;0;0;0.15;0;0;0;0;6;0;0;0;1;0;0;0;0;0;1253;4;50;Y;673;4;Y;302;;;37
Cu-6Ni-1Si-0.5Al;Cu-Ni-Si alloys;92.25;0.5;0;0;0;0;0;0;0.1;0;0;0;0.15;0;0;0;0;6;0;0;0;1;0;0;0;0;0;1253;4;50;Y;723;0.25;Y;305;;;35
Cu-6Ni-1Si-0.5Al;Cu-Ni-Si alloys;92.25;0.5;0;0;0;0;0;0;0.1;0;0;0;0.15;0;0;0;0;6;0;0;0;1;0;0;0;0;0;1253;4;50;Y;723;2;Y;280;;;37
Cu-6Ni-1Si-0.5Al;Cu-Ni-Si alloys;92.25;0.5;0;0;0;0;0;0;0.1;0;0;0;0.15;0;0;0;0;6;0;0;0;1;0;0;0;0;0;1253;4;50;Y;723;8;Y;248;;;41
Cu-6Ni-1Si-0.5Al;Cu-Ni-Si alloys;92.25;0.5;0;0;0;0;0;0;0.1;0;0;0;0.15;0;0;0;0;6;0;0;0;1;0;0;0;0;0;1253;4;50;Y;773;1;Y;260;;;36
Cu-6Ni-1Si-0.5Al;Cu-Ni-Si alloys;92.25;0.5;0;0;0;0;0;0;0.1;0;0;0;0.15;0;0;0;0;6;0;0;0;1;0;0;0;0;0;1253;4;50;Y;773;5;Y;205;;;41
Cu-6Ni-1Si-0.5Al;Cu-Ni-Si alloys;92.25;0.5;0;0;0;0;0;0;0.1;0;0;0;0.15;0;0;0;0;6;0;0;0;1;0;0;0;0;0;1253;4;50;Y;823;0.5;Y;204;;;36
Cu-6Ni-1Si-0.5Al;Cu-Ni-Si alloys;92.25;0.5;0;0;0;0;0;0;0.1;0;0;0;0.15;0;0;0;0;6;0;0;0;1;0;0;0;0;0;1253;4;50;Y;823;3;Y;173;;;38
Cu-6Ni-1Si-0.5Al;Cu-Ni-Si alloys;92.25;0.5;0;0;0;0;0;0;0.1;0;0;0;0.15;0;0;0;0;6;0;0;0;1;0;0;0;0;0;1253;4;50;N;;;Y;275;;;31
Cu-6Ni-1Si-0.5Al;Cu-Ni-Si alloys;92.25;0.5;0;0;0;0;0;0;0.1;0;0;0;0.15;0;0;0;0;6;0;0;0;1;0;0;0;0;0;1253;4;50;Y;673;1;Y;285;;;37
Cu-6Ni-1Si-0.5Al;Cu-Ni-Si alloys;92.25;0.5;0;0;0;0;0;0;0.1;0;0;0;0.15;0;0;0;0;6;0;0;0;1;0;0;0;0;0;1253;4;50;Y;673;5;Y;277;;;39
Cu-6Ni-1Si-0.5Al;Cu-Ni-Si alloys;92.25;0.5;0;0;0;0;0;0;0.1;0;0;0;0.15;0;0;0;0;6;0;0;0;1;0;0;0;0;0;1253;4;50;Y;723;0.5;Y;279;;;36
Cu-6Ni-1Si-0.5Al;Cu-Ni-Si alloys;92.25;0.5;0;0;0;0;0;0;0.1;0;0;0;0.15;0;0;0;0;6;0;0;0;1;0;0;0;0;0;1253;4;50;Y;723;3;Y;270;;;38
Cu-6Ni-1Si-0.5Al;Cu-Ni-Si alloys;92.25;0.5;0;0;0;0;0;0;0.1;0;0;0;0.15;0;0;0;0;6;0;0;0;1;0;0;0;0;0;1253;4;50;Y;773;0.083;Y;302;;;31
Cu-6Ni-1Si-0.5Al;Cu-Ni-Si alloys;92.25;0.5;0;0;0;0;0;0;0.1;0;0;0;0.15;0;0;0;0;6;0;0;0;1;0;0;0;0;0;1253;4;50;Y;773;1.5;Y;241;;;37
Cu-6Ni-1Si-0.5Al;Cu-Ni-Si alloys;92.25;0.5;0;0;0;0;0;0;0.1;0;0;0;0.15;0;0;0;0;6;0;0;0;1;0;0;0;0;0;1253;4;50;Y;773;6;Y;184;;;42
Cu-6Ni-1Si-0.5Al;Cu-Ni-Si alloys;92.25;0.5;0;0;0;0;0;0;0.1;0;0;0;0.15;0;0;0;0;6;0;0;0;1;0;0;0;0;0;1253;4;50;Y;823;0.75;Y;202;;;37
Cu-6Ni-1Si-0.5Al;Cu-Ni-Si alloys;92.25;0.5;0;0;0;0;0;0;0.1;0;0;0;0.15;0;0;0;0;6;0;0;0;1;0;0;0;0;0;1253;4;50;Y;823;4;Y;170;;;39
Cu-3.2Ni-1.1Si;Cu-Ni-Si alloys;95.565;0;0;0;0;0;0;0;0;0;0;0;0;0;0;0;0;3.3;0;0;0;1.135;0;0;0;0;0;1173;1;0;Y;773;1;N;185;;;19
Cu-3.2Ni-0.95Si;Cu-Ni-Si alloys;95.725;0;0;0;0;0;0;0;0;0;0;0;0;0;0;0;0;3.3;0;0;0;0.975;0;0;0;0;0;1173;1;0;Y;773;1;N;211;;;24
Cu-3.2Ni-0.83Si;Cu-Ni-Si alloys;95.835;0;0;0;0;0;0;0;0;0;0;0;0;0;0;0;0;3.3;0;0;0;0.865;0;0;0;0;0;1173;1;0;Y;773;1;N;218;;;31
Cu-3.2Ni-0.73Si;Cu-Ni-Si alloys;95.935;0;0;0;0;0;0;0;0;0;0;0;0;0;0;0;0;3.3;0;0;0;0.765;0;0;0;0;0;1173;1;0;Y;773;1;N;227;;;37
Cu-3.2Ni-0.60Si;Cu-Ni-Si alloys;96.075;0;0;0;0;0;0;0;0;0;0;0;0;0;0;0;0;3.3;0;0;0;0.625;0;0;0;0;0;1173;1;0;Y;773;1;N;199;;;40
Cu-3.2Ni-0.54Si;Cu-Ni-Si alloys;96.155;0;0;0;0;0;0;0;0;0;0;0;0;0;0;0;0;3.3;0;0;0;0.545;0;0;0;0;0;1173;1;0;Y;773;1;N;165;;;39
Cu-3.2Ni-0.47Si;Cu-Ni-Si alloys;96.215;0;0;0;0;0;0;0;0;0;0;0;0;0;0;0;0;3.3;0;0;0;0.485;0;0;0;0;0;1173;1;0;Y;773;1;N;148;;;37
Cu-3.2Ni-0.44Si;Cu-Ni-Si alloys;96.255;0;0;0;0;0;0;0;0;0;0;0;0;0;0;0;0;3.3;0;0;0;0.445;0;0;0;0;0;1173;1;0;Y;773;1;N;139;;;35
Cu-3.2Ni-0.40Si;Cu-Ni-Si alloys;96.295;0;0;0;0;0;0;0;0;0;0;0;0;0;0;0;0;3.3;0;0;0;0.405;0;0;0;0;0;1173;1;0;Y;773;1;N;132;;;33
Cu-3.2Ni-0.40Si;Cu-Ni-Si alloys;95.725;0;0;0;0;0;0;0;0;0;0;0;0;0;0;0;0;3.3;0;0;0;0.975;0;0;0;0;0;1173;1;0;Y;773;1;N;224;;;25
Cu-3.2Ni-0.40Si;Cu-Ni-Si alloys;96.215;0;0;0;0;0;0;0;0;0;0;0;0;0;0;0;0;3.3;0;0;0;0.485;0;0;0;0;0;1173;1;0;Y;773;1;N;182;;;37
Cu-3.2Ni-0.40Si;Cu-Ni-Si alloys;95.835;0;0;0;0;0;0;0;0;0;0;0;0;0;0;0;0;3.3;0;0;0;0.865;0;0;0;0;0;1173;1;0;Y;773;2;N;234;530;649;32
Cu-3.2Ni-0.40Si;Cu-Ni-Si alloys;96.255;0;0;0;0;0;0;0;0;0;0;0;0;0;0;0;0;3.3;0;0;0;0.445;0;0;0;0;0;1173;1;0;Y;773;2;N;190;;;38
Cu-3.2Ni-0.40Si;Cu-Ni-Si alloys;95.935;0;0;0;0;0;0;0;0;0;0;0;0;0;0;0;0;3.3;0;0;0;0.765;0;0;0;0;0;1173;1;0;Y;773;4;N;227;;;41
Cu-3.2Ni-0.40Si;Cu-Ni-Si alloys;96.295;0;0;0;0;0;0;0;0;0;0;0;0;0;0;0;0;3.3;0;0;0;0.405;0;0;0;0;0;1173;1;0;Y;773;4;N;181;;;40
Cu-3.2Ni-0.40Si;Cu-Ni-Si alloys;95.935;0;0;0;0;0;0;0;0;0;0;0;0;0;0;0;0;3.3;0;0;0;0.765;0;0;0;0;0;1173;1;0;Y;723;2;N;199;;;33
Cu-3.2Ni-0.40Si;Cu-Ni-Si alloys;95.935;0;0;0;0;0;0;0;0;0;0;0;0;0;0;0;0;3.3;0;0;0;0.765;0;0;0;0;0;1173;1;0;Y;773;0.25;N;161;;;28
Cu-3.2Ni-0.40Si;Cu-Ni-Si alloys;95.935;0;0;0;0;0;0;0;0;0;0;0;0;0;0;0;0;3.3;0;0;0;0.765;0;0;0;0;0;1173;1;0;Y;773;6;N;215;;;41
Cu-3.2Ni-0.40Si;Cu-Ni-Si alloys;95.935;0;0;0;0;0;0;0;0;0;0;0;0;0;0;0;0;3.3;0;0;0;0.765;0;0;0;0;0;1173;1;60;Y;723;0.5;N;255;;;38
Cu-3.2Ni-0.40Si;Cu-Ni-Si alloys;95.935;0;0;0;0;0;0;0;0;0;0;0;0;0;0;0;0;3.3;0;0;0;0.765;0;0;0;0;0;1173;1;60;Y;723;8;N;190;;;48
Cu-3.2Ni-0.40Si;Cu-Ni-Si alloys;95.935;0;0;0;0;0;0;0;0;0;0;0;0;0;0;0;0;3.3;0;0;0;0.765;0;0;0;0;0;1173;1;60;Y;773;2;N;214;;;41
Cu-3.2Ni-0.40Si;Cu-Ni-Si alloys;95.935;0;0;0;0;0;0;0;0;0;0;0;0;0;0;0;0;3.3;0;0;0;0.765;0;0;0;0;0;1173;1;45;N;;;Y;276;;;36
Cu-3.2Ni-0.40Si;Cu-Ni-Si alloys;95.935;0;0;0;0;0;0;0;0;0;0;0;0;0;0;0;0;3.3;0;0;0;0.765;0;0;0;0;0;1173;1;45;Y;623;4;Y;277;;;40
Cu-0.85Ni-2.67Si-0.82Co;Cu-Ni-Si alloys;95.66;0;0;0;0;0;2.67;0;0;0;0;0;0;0;0;0;0;0.85;0;0;0;0.82;0;0;0;0;0;1293;1;0;Y;773;0.25;N;241;;;42
Cu-0.85Ni-2.67Si-0.82Co;Cu-Ni-Si alloys;95.66;0;0;0;0;0;2.67;0;0;0;0;0;0;0;0;0;0;0.85;0;0;0;0.82;0;0;0;0;0;1293;1;0;Y;773;8;N;231;;;49
Cu-1.84Ni-1.64Si-0.82Co;Cu-Ni-Si alloys;95.7;0;0;0;0;0;1.64;0;0;0;0;0;0;0;0;0;0;1.84;0;0;0;0.82;0;0;0;0;0;1293;1;0;Y;773;2;N;261;;;45
Cu-2.31Ni-1.18Si-0.82Co;Cu-Ni-Si alloys;95.69;0;0;0;0;0;1.18;0;0;0;0;0;0;0;0;0;0;2.31;0;0;0;0.82;0;0;0;0;0;1293;1;0;Y;773;0.5;N;266;;;39
Cu-3.48Ni-0.82Co;Cu-Ni-Si alloys;95.7;0;0;0;0;0;0;0;0;0;0;0;0;0;0;0;0;3.48;0;0;0;0.82;0;0;0;0;0;1173;1;0;N;;;N;196;;;26
Cu-3.48Ni-0.82Co;Cu-Ni-Si alloys;95.7;0;0;0;0;0;0;0;0;0;0;0;0;0;0;0;0;3.48;0;0;0;0.82;0;0;0;0;0;1173;1;0;Y;773;4;N;228;;;40
Cu-6Ni-1.43Si;Cu-Ni-Si alloys;92.57;0;0;0;0;0;0;0;0;0;0;0;0;0;0;0;0;6;0;0;0;1.43;0;0;0;0;0;1223;2;75;Y;773;0.167;;;619;796;24
Cu-3Ni-0.63Si-0.12Ti;Cu-Ni-Si alloys;96.25;0;0;0;0;0;0;0;0;0;0;0;0;0;0;0;0;3;0;0;0;0.63;0;0.12;0;0;0;1223;2;75;Y;773;0.5;;;538;718;38
Cu-6Ni-1.29Si-0.24Ti;Cu-Ni-Si alloys;92.47;0;0;0;0;0;0;0;0;0;0;0;0;0;0;0;0;6;0;0;0;1.29;0;0.24;0;0;0;1223;2;75;Y;773;0.5;;;582;814;31
Cu-6Ni-1Si-0.5Al-0.15Mg-0.1Cr;Cu-Ni-Si alloys;92.27;0.49;0;0;0;0;0;0;0.11;0;0;0;0.12;0;0;0;0;5.98;0;0;0;1.03;0;0;0;0;0;1243;6;50;Y;673;0.75;N;329;;;22
Cu-6Ni-1Si-0.5Al-0.15Mg-0.1Cr;Cu-Ni-Si alloys;92.27;0.49;0;0;0;0;0;0;0.11;0;0;0;0.12;0;0;0;0;5.98;0;0;0;1.03;0;0;0;0;0;1243;6;50;Y;673;4;N;335;;;25
Cu-6Ni-1Si-0.5Al-0.15Mg-0.1Cr;Cu-Ni-Si alloys;92.27;0.49;0;0;0;0;0;0;0.11;0;0;0;0.12;0;0;0;0;5.98;0;0;0;1.03;0;0;0;0;0;1243;6;50;Y;673;20;N;330;;;32
Cu-6Ni-1Si-0.5Al-0.15Mg-0.1Cr;Cu-Ni-Si alloys;92.27;0.49;0;0;0;0;0;0;0.11;0;0;0;0.12;0;0;0;0;5.98;0;0;0;1.03;0;0;0;0;0;1243;6;50;Y;723;1.5;N;350;;;28
Cu-6Ni-1Si-0.5Al-0.15Mg-0.1Cr;Cu-Ni-Si alloys;92.27;0.49;0;0;0;0;0;0;0.11;0;0;0;0.12;0;0;0;0;5.98;0;0;0;1.03;0;0;0;0;0;1243;6;50;Y;723;8;N;351;;;35
Cu-6Ni-1Si-0.5Al-0.15Mg-0.1Cr;Cu-Ni-Si alloys;92.27;0.49;0;0;0;0;0;0;0.11;0;0;0;0.12;0;0;0;0;5.98;0;0;0;1.03;0;0;0;0;0;1243;6;50;Y;773;0.5;N;338;;;29
Cu-6Ni-1Si-0.5Al-0.15Mg-0.1Cr;Cu-Ni-Si alloys;92.27;0.49;0;0;0;0;0;0;0.11;0;0;0;0.12;0;0;0;0;5.98;0;0;0;1.03;0;0;0;0;0;1243;6;50;Y;773;3;N;289;;;34
Cu-6Ni-1Si-0.5Al-0.15Mg-0.1Cr;Cu-Ni-Si alloys;92.27;0.49;0;0;0;0;0;0;0.11;0;0;0;0.12;0;0;0;0;5.98;0;0;0;1.03;0;0;0;0;0;1243;6;50;Y;773;16;N;215;;;39
Cu-6Ni-1Si-0.5Al-0.15Mg-0.1Cr;Cu-Ni-Si alloys;92.27;0.49;0;0;0;0;0;0;0.11;0;0;0;0.12;0;0;0;0;5.98;0;0;0;1.03;0;0;0;0;0;1243;6;50;Y;823;1;N;253;;;33
Cu-6Ni-1Si-0.5Al-0.15Mg-0.1Cr;Cu-Ni-Si alloys;92.27;0.49;0;0;0;0;0;0;0.11;0;0;0;0.12;0;0;0;0;5.98;0;0;0;1.03;0;0;0;0;0;1243;6;50;Y;823;6;N;192;;;37
Cu-6Ni-1Si-0.5Al-0.15Mg-0.1Cr;Cu-Ni-Si alloys;92.27;0.49;0;0;0;0;0;0;0.11;0;0;0;0.12;0;0;0;0;5.98;0;0;0;1.03;0;0;0;0;0;1243;6;50;Y;873;0.25;N;244;;;30
Cu-6Ni-1Si-0.5Al-0.15Mg-0.1Cr;Cu-Ni-Si alloys;92.27;0.49;0;0;0;0;0;0;0.11;0;0;0;0.12;0;0;0;0;5.98;0;0;0;1.03;0;0;0;0;0;1243;6;50;Y;873;2;N;209;;;37
Cu-6Ni-1Si-0.5Al-0.15Mg-0.1Cr;Cu-Ni-Si alloys;92.27;0.49;0;0;0;0;0;0;0.11;0;0;0;0.12;0;0;0;0;5.98;0;0;0;1.03;0;0;0;0;0;1243;6;50;Y;873;12;N;158;;;40
Cu-6Ni-1Si-0.5Al-0.15Mg-0.1Cr;Cu-Ni-Si alloys;92.27;0.49;0;0;0;0;0;0;0.11;0;0;0;0.12;0;0;0;0;5.98;0;0;0;1.03;0;0;0;0;0;1243;6;50;Y;923;0.75;N;248;;;32
Cu-6Ni-1Si-0.5Al-0.15Mg-0.1Cr;Cu-Ni-Si alloys;92.27;0.49;0;0;0;0;0;0;0.11;0;0;0;0.12;0;0;0;0;5.98;0;0;0;1.03;0;0;0;0;0;1243;6;50;Y;923;4;N;152;;;39
Cu-6Ni-1Si-0.5Al-0.15Mg-0.1Cr;Cu-Ni-Si alloys;92.27;0.49;0;0;0;0;0;0;0.11;0;0;0;0.12;0;0;0;0;5.98;0;0;0;1.03;0;0;0;0;0;1243;6;50;Y;923;20;N;122;;;41
Cu-6Ni-1Si-0.5Al-0.15Mg-0.1Cr;Cu-Ni-Si alloys;92.27;0.49;0;0;0;0;0;0;0.11;0;0;0;0.12;0;0;0;0;5.98;0;0;0;1.03;0;0;0;0;0;1243;6;50;Y;973;1.5;N;210;;;37
Cu-6Ni-1Si-0.5Al-0.15Mg-0.1Cr;Cu-Ni-Si alloys;92.27;0.49;0;0;0;0;0;0;0.11;0;0;0;0.12;0;0;0;0;5.98;0;0;0;1.03;0;0;0;0;0;1243;6;50;Y;973;8;N;121;;;40
Cu-6Ni-1Si-0.5Al-0.15Mg-0.1Cr;Cu-Ni-Si alloys;92.27;0.49;0;0;0;0;0;0;0.11;0;0;0;0.12;0;0;0;0;5.98;0;0;0;1.03;0;0;0;0;0;1243;6;50;Y;1023;0.5;N;243;;;27
Cu-6Ni-1Si-0.5Al-0.15Mg-0.1Cr;Cu-Ni-Si alloys;92.27;0.49;0;0;0;0;0;0;0.11;0;0;0;0.12;0;0;0;0;5.98;0;0;0;1.03;0;0;0;0;0;1243;6;50;Y;1023;3;N;148;;;39
Cu-6Ni-1Si-0.5Al-0.15Mg-0.1Cr;Cu-Ni-Si alloys;92.27;0.49;0;0;0;0;0;0;0.11;0;0;0;0.12;0;0;0;0;5.98;0;0;0;1.03;0;0;0;0;0;1243;6;50;Y;1023;16;N;95;;;41
Cu-4.5Ni-1Si-1.2Co-0.15Mg;Cu-Ni-Si alloys;93.15;0;0;0;0;0;1.2;0;0;0;0;0;0.15;0;0;0;0;4.5;0;0;0;1;0;0;0;0;0;1253;4;0;N;;;N;125;;;18
Cu-4.5Ni-1Si-1.2Co-0.15Mg;Cu-Ni-Si alloys;93.15;0;0;0;0;0;1.2;0;0;0;0;0;0.15;0;0;0;0;4.5;0;0;0;1;0;0;0;0;0;1253;4;0;Y;673;4;N;230;;;26
Cu-4.5Ni-1Si-1.2Co-0.15Mg;Cu-Ni-Si alloys;93.15;0;0;0;0;0;1.2;0;0;0;0;0;0.15;0;0;0;0;4.5;0;0;0;1;0;0;0;0;0;1253;4;0;Y;723;0.5;N;223;;;26
Cu-4.5Ni-1Si-1.2Co-0.15Mg;Cu-Ni-Si alloys;93.15;0;0;0;0;0;1.2;0;0;0;0;0;0.15;0;0;0;0;4.5;0;0;0;1;0;0;0;0;0;1253;4;0;Y;723;12;N;263;;;31
Cu-4.5Ni-1Si-1.2Co-0.15Mg;Cu-Ni-Si alloys;93.15;0;0;0;0;0;1.2;0;0;0;0;0;0.15;0;0;0;0;4.5;0;0;0;1;0;0;0;0;0;1253;4;0;Y;753;4;N;240;;;30
Cu-4.5Ni-1Si-1.2Co-0.15Mg;Cu-Ni-Si alloys;93.15;0;0;0;0;0;1.2;0;0;0;0;0;0.15;0;0;0;0;4.5;0;0;0;1;0;0;0;0;0;1253;4;70;Y;723;1;N;311;917;959;26
Cu-4.5Ni-1Si-1.2Co-0.15Mg;Cu-Ni-Si alloys;93.15;0;0;0;0;0;1.2;0;0;0;0;0;0.15;0;0;0;0;4.5;0;0;0;1;0;0;0;0;0;1253;4;70;Y;673;1;N;289;;;24
Cu-4.5Ni-1Si-1.2Co-0.15Mg;Cu-Ni-Si alloys;93.15;0;0;0;0;0;1.2;0;0;0;0;0;0.15;0;0;0;0;4.5;0;0;0;1;0;0;0;0;0;1253;4;70;Y;723;0.5;N;308;;;25
Cu-4.5Ni-1Si-1.2Co-0.15Mg;Cu-Ni-Si alloys;93.15;0;0;0;0;0;1.2;0;0;0;0;0;0.15;0;0;0;0;4.5;0;0;0;1;0;0;0;0;0;1253;4;70;Y;753;0.25;N;298;;;24
Cu-4.5Ni-1Si-1.2Co-0.15Mg;Cu-Ni-Si alloys;93.15;0;0;0;0;0;1.2;0;0;0;0;0;0.15;0;0;0;0;4.5;0;0;0;1;0;0;0;0;0;1253;4;70;Y;753;8;N;250;;;33
Cu-4.5Ni-1Si-1.2Co-0.15Mg;Cu-Ni-Si alloys;93.15;0;0;0;0;0;1.2;0;0;0;0;0;0.15;0;0;0;0;4.5;0;0;0;1;0;0;0;0;0;1253;4;70;N;;;N;280;;;21
Cu-4.5Ni-1Si-1.2Co-0.15Mg;Cu-Ni-Si alloys;93.15;0;0;0;0;0;1.2;0;0;0;0;0;0.15;0;0;0;0;4.5;0;0;0;1;0;0;0;0;0;1253;4;70;Y;673;0.333;N;315;;;27
Cu-4.5Ni-1Si-1.2Co-0.15Mg;Cu-Ni-Si alloys;93.15;0;0;0;0;0;1.2;0;0;0;0;0;0.15;0;0;0;0;4.5;0;0;0;1;0;0;0;0;0;1253;4;70;Y;703;0.083;N;315;;;26
Cu-4.5Ni-1Si-1.2Co-0.15Mg;Cu-Ni-Si alloys;93.15;0;0;0;0;0;1.2;0;0;0;0;0;0.15;0;0;0;0;4.5;0;0;0;1;0;0;0;0;0;1253;4;70;Y;703;1;N;308;;;31
Cu-4.5Ni-1Si-1.2Co-0.15Mg;Cu-Ni-Si alloys;93.15;0;0;0;0;0;1.2;0;0;0;0;0;0.15;0;0;0;0;4.5;0;0;0;1;0;0;0;0;0;1253;4;70;Y;723;0.25;N;328;;;30
Cu-4.5Ni-1Si-1.2Co-0.15Mg;Cu-Ni-Si alloys;93.15;0;0;0;0;0;1.2;0;0;0;0;0;0.15;0;0;0;0;4.5;0;0;0;1;0;0;0;0;0;1253;4;70;Y;753;0.033;N;319;;;27
Cu-4.5Ni-1Si-1.2Co-0.15Mg;Cu-Ni-Si alloys;93.15;0;0;0;0;0;1.2;0;0;0;0;0;0.15;0;0;0;0;4.5;0;0;0;1;0;0;0;0;0;1253;4;70;Y;753;0.75;N;281;;;36
Cu-3.52Ni-0.94Si-0.35Cr;Cu-Ni-Si alloys;95.19;0;0;0;0;0;0;0;0.35;0;0;0;0;0;0;0;0;3.52;0;0;0;0.94;0;0;0;0;0;1223;1;0;Y;723;2;N;224;;;33
Cu-3.52Ni-0.93Si-0.37Fe;Cu-Ni-Si alloys;95.18;0;0;0;0;0;0;0;0;0.37;0;0;0;0;0;0;0;3.52;0;0;0;0.93;0;0;0;0;0;1223;1;0;Y;723;1;N;152;;;24
Cu-3.52Ni-0.93Si-0.37Fe;Cu-Ni-Si alloys;95.18;0;0;0;0;0;0;0;0;0.37;0;0;0;0;0;0;0;3.52;0;0;0;0.93;0;0;0;0;0;1223;1;0;Y;723;24;N;78;;;46
Cu-4.95Ni-1.20Si;Cu-Ni-Si alloys;94.2;0;0;0;0;0;0;0;0;0;0;0;0;0;0;0;0;4.7;0;0;0;1.1;0;0;0;0;0;1223;1;0;Y;723;4;N;195;;;51
Cu-4.95Ni-1.20Si;Cu-Ni-Si alloys;95.9;0;0;0;0;0;0;0;0;0;0;0;0;0;0;0;0;3.3;0;0;0;0.8;0;0;0;0;0;1223;1;0;Y;723;4;N;169;;;50
Cu-4.1Ni-1Si;Cu-Ni-Si alloys;94.93;0;0;0;0;0;0;0;0;0;0;0;0;0;0;0;0;4.1;0;0;0;0.97;0;0;0;0;0;1173;3;0;N;;;N;87;;;14
Cu-4.1Ni-1Si;Cu-Ni-Si alloys;94.93;0;0;0;0;0;0;0;0;0;0;0;0;0;0;0;0;4.1;0;0;0;0.97;0;0;0;0;0;1173;3;0;Y;723;16;N;264;;;38
Cu-4.1Ni-1Si;Cu-Ni-Si alloys;94.93;0;0;0;0;0;0;0;0;0;0;0;0;0;0;0;0;4.1;0;0;0;0.97;0;0;0;0;0;1173;3;0;Y;723;408;N;137;;;52
Cu-2.8Ni-0.8Si-0.8Cr;Cu-Ni-Si alloys;95.6;0;0;0;0;0;0;0;0.8;0;0;0;0;0;0;0;0;2.8;0;0;0;0.8;0;0;0;0;0;1173;2;50;Y;773;3.5;N;235;;;47
Cu-2Ni-0.5Si;Cu-Ni-Si alloys;97.56;0;0;0;0;0;0;0;0;0;0;0;0;0;0;0;0;1.92;0;0;0;0.52;0;0;0;0;0;1233;1;60;Y;723;1;N;232;;;38
Cu-2Ni-0.5Si;Cu-Ni-Si alloys;97.56;0;0;0;0;0;0;0;0;0;0;0;0;0;0;0;0;1.92;0;0;0;0.52;0;0;0;0;0;1233;1;60;Y;773;0.5;N;230;;;39
Cu-2Ni-0.5Si;Cu-Ni-Si alloys;97.56;0;0;0;0;0;0;0;0;0;0;0;0;0;0;0;0;1.92;0;0;0;0.52;0;0;0;0;0;1233;1;50;Y;648;8;Y;189;;625;47
Cu-2Ni-0.5Si;Cu-Ni-Si alloys;97.56;0;0;0;0;0;0;0;0;0;0;0;0;0;0;0;0;1.92;0;0;0;0.52;0;0;0;0;0;1233;1;60;Y;773;1;N;210;;;42
Cu-2Ni-0.5Si-0.15Zr;Cu-Ni-Si alloys;97.5;0;0;0;0;0;0;0;0;0;0;0;0;0;0;0;0;1.87;0;0;0;0.47;0;0;0;0;0.16;1233;1;60;Y;723;1;N;217;;;41
Cu-2Ni-0.5Si-0.15Zr;Cu-Ni-Si alloys;97.5;0;0;0;0;0;0;0;0;0;0;0;0;0;0;0;0;1.87;0;0;0;0.47;0;0;0;0;0.16;1233;1;60;Y;773;0.5;N;205;;;42
Cu-2Ni-0.5Si-0.15Zr;Cu-Ni-Si alloys;97.5;0;0;0;0;0;0;0;0;0;0;0;0;0;0;0;0;1.87;0;0;0;0.47;0;0;0;0;0.16;1233;1;50;Y;648;8;Y;168;;587;48
Cu-2Ni-0.5Si-0.15Zr;Cu-Ni-Si alloys;97.5;0;0;0;0;0;0;0;0;0;0;0;0;0;0;0;0;1.87;0;0;0;0.47;0;0;0;0;0.16;1233;1;60;Y;773;1;N;186;;;44
Cu-2Ni-0.5Si-0.3Cr;Cu-Ni-Si alloys;97.29;0;0;0;0;0;0;0;0.4;0;0;0;0;0;0;0;0;1.83;0;0;0;0.49;0;0;0;0;0;1233;1;60;Y;723;1;N;224;;;39
Cu-2Ni-0.5Si-0.3Cr;Cu-Ni-Si alloys;97.29;0;0;0;0;0;0;0;0.4;0;0;0;0;0;0;0;0;1.83;0;0;0;0.49;0;0;0;0;0;1233;1;60;Y;773;0.5;N;232;;;42
Cu-2Ni-0.5Si-0.3Cr;Cu-Ni-Si alloys;97.29;0;0;0;0;0;0;0;0.4;0;0;0;0;0;0;0;0;1.83;0;0;0;0.49;0;0;0;0;0;1233;1;50;Y;648;8;Y;213;;700;50
Cu-2Ni-0.5Si-0.3Cr;Cu-Ni-Si alloys;97.29;0;0;0;0;0;0;0;0.4;0;0;0;0;0;0;0;0;1.83;0;0;0;0.49;0;0;0;0;0;1233;1;60;Y;773;1;N;219;;;44
Cu-2Ni-0.5Si-0.15Cr-0.15Zr;Cu-Ni-Si alloys;97.06;0;0;0;0;0;0;0;0.22;0;0;0;0;0;0;0;0;1.88;0;0;0;0.6;0;0;0;0;0.25;1233;1;60;Y;723;1;N;227;;;38
Cu-2Ni-0.5Si-0.15Cr-0.15Zr;Cu-Ni-Si alloys;97.06;0;0;0;0;0;0;0;0.22;0;0;0;0;0;0;0;0;1.88;0;0;0;0.6;0;0;0;0;0.25;1233;1;60;Y;773;0.5;N;223;;;41
Cu-2Ni-0.5Si-0.15Cr-0.15Zr;Cu-Ni-Si alloys;97.06;0;0;0;0;0;0;0;0.22;0;0;0;0;0;0;0;0;1.88;0;0;0;0.6;0;0;0;0;0.25;1233;1;50;Y;648;8;Y;209;;706;48
Cu-2Ni-0.5Si-0.15Cr-0.15Zr;Cu-Ni-Si alloys;97.06;0;0;0;0;0;0;0;0.22;0;0;0;0;0;0;0;0;1.88;0;0;0;0.6;0;0;0;0;0.25;1233;1;60;Y;723;1;N;209;;;43
Cu-4Ni-1Si-0.02P;Cu-Ni-Si alloys;95.03;0;0;0;0;0;0;0;0;0;0;0;0;0;0;0;0;4;0.02;0;0;0.95;0;0;0;0;0;1273;4;5;Y;723;5;N;;650;770;36
Cu-1.9Ni-1Si-1Co-0.2Zr;Cu-Ni-Si alloys;95.84;0;0;0;0;0;1.02;0;0;0;0;0;0;0;0;0;0;1.9;0;0;0;1.04;0;0;0;0;0.2;1223;0.5;0;Y;773;3;N;;565;645;45
Cu-1.91Ni-0.47Si-0.035P;Cu-Ni-Si alloys;97.585;0;0;0;0;0;0;0;0;0;0;0;0;0;0;0;0;1.91;0.035;0;0;0.47;0;0;0;0;0;1223;1;0;Y;673;2;N;;183;;31
Cu-1.91Ni-0.47Si-0.035P;Cu-Ni-Si alloys;97.585;0;0;0;0;0;0;0;0;0;0;0;0;0;0;0;0;1.91;0.035;0;0;0.47;0;0;0;0;0;1223;1;0;Y;723;1;N;;199;;31
Cu-1.91Ni-0.47Si-0.035P;Cu-Ni-Si alloys;97.585;0;0;0;0;0;0;0;0;0;0;0;0;0;0;0;0;1.91;0.035;0;0;0.47;0;0;0;0;0;1223;1;0;Y;773;0.5;N;;219;;28
Cu-1.91Ni-0.47Si-0.035P;Cu-Ni-Si alloys;97.585;0;0;0;0;0;0;0;0;0;0;0;0;0;0;0;0;1.91;0.035;0;0;0.47;0;0;0;0;0;1223;1;40;N;;;N;;166;384;21
Cu-1.91Ni-0.47Si-0.035P;Cu-Ni-Si alloys;97.585;0;0;0;0;0;0;0;0;0;0;0;0;0;0;0;0;1.91;0.035;0;0;0.47;0;0;0;0;0;1223;1;40;Y;723;4;N;;237;537;38
Cu-1.91Ni-0.47Si-0.035P;Cu-Ni-Si alloys;97.585;0;0;0;0;0;0;0;0;0;0;0;0;0;0;0;0;1.91;0.035;0;0;0.47;0;0;0;0;0;1173;1;40;Y;693;1;Y;;;774;50
Cu-1.91Ni-0.47Si-0.035P;Cu-Ni-Si alloys;97.585;0;0;0;0;0;0;0;0;0;0;0;0;0;0;0;0;1.91;0.035;0;0;0.47;0;0;0;0;0;1223;1;60;Y;723;0.25;N;;219;;32
Cu-1.91Ni-0.47Si-0.035P;Cu-Ni-Si alloys;97.585;0;0;0;0;0;0;0;0;0;0;0;0;0;0;0;0;1.91;0.035;0;0;0.47;0;0;0;0;0;1223;1;60;Y;723;6;N;;226;;39
Cu-1.91Ni-0.47Si-0.035P;Cu-Ni-Si alloys;97.585;0;0;0;0;0;0;0;0;0;0;0;0;0;0;0;0;1.91;0.035;0;0;0.47;0;0;0;0;0;1223;1;80;Y;723;2;N;;223;;40
Cu-2.8Ni-0.6Si;Cu-Ni-Si alloys;96.6;0;0;0;0;0;0;0;0;0;0;0;0;0;0;0;0;2.8;0;0;0;0.6;0;0;0;0;0;1173;1.5;0;Y;673;1;N;107;;;27
Cu-2.8Ni-0.6Si;Cu-Ni-Si alloys;96.6;0;0;0;0;0;0;0;0;0;0;0;0;0;0;0;0;2.8;0;0;0;0.6;0;0;0;0;0;1173;1.5;0;Y;723;0.5;N;126;;;29
Cu-2.8Ni-0.6Si;Cu-Ni-Si alloys;96.6;0;0;0;0;0;0;0;0;0;0;0;0;0;0;0;0;2.8;0;0;0;0.6;0;0;0;0;0;1173;1.5;0;Y;723;16;N;212;;;44
Cu-2.8Ni-0.6Si;Cu-Ni-Si alloys;96.6;0;0;0;0;0;0;0;0;0;0;0;0;0;0;0;0;2.8;0;0;0;0.6;0;0;0;0;0;1173;1.5;0;Y;773;8;N;199;;;45
Cu-2.8Ni-0.6Si;Cu-Ni-Si alloys;96.6;0;0;0;0;0;0;0;0;0;0;0;0;0;0;0;0;2.8;0;0;0;0.6;0;0;0;0;0;1173;1.5;0;Y;823;4;N;173;;;42
Cu-2.8Ni-0.6Si;Cu-Ni-Si alloys;96.6;0;0;0;0;0;0;0;0;0;0;0;0;0;0;0;0;2.8;0;0;0;0.6;0;0;0;0;0;1173;1.5;0;Y;873;2;N;153;;;39
Cu-1.4Ni-1.2Co-0.6Si;Cu-Ni-Si alloys;96.8;0;0;0;0;0;1.2;0;0;0;0;0;0;0;0;0;0;1.4;0;0;0;0.6;0;0;0;0;0;1173;1.5;0;Y;673;0.5;N;185;;;28
Cu-1.4Ni-1.2Co-0.6Si;Cu-Ni-Si alloys;96.8;0;0;0;0;0;1.2;0;0;0;0;0;0;0;0;0;0;1.4;0;0;0;0.6;0;0;0;0;0;1173;1.5;0;Y;673;16;N;220;;;47
Cu-1.4Ni-1.2Co-0.6Si;Cu-Ni-Si alloys;96.8;0;0;0;0;0;1.2;0;0;0;0;0;0;0;0;0;0;1.4;0;0;0;0.6;0;0;0;0;0;1173;1.5;0;Y;723;8;N;215;;;51
Cu-1.4Ni-1.2Co-0.6Si;Cu-Ni-Si alloys;96.8;0;0;0;0;0;1.2;0;0;0;0;0;0;0;0;0;0;1.4;0;0;0;0.6;0;0;0;0;0;1173;1.5;0;Y;773;4;N;231;;;51
Cu-1.4Ni-1.2Co-0.6Si;Cu-Ni-Si alloys;96.8;0;0;0;0;0;1.2;0;0;0;0;0;0;0;0;0;0;1.4;0;0;0;0.6;0;0;0;0;0;1173;1.5;0;Y;823;2;N;216;;;47
Cu-1.4Ni-1.2Co-0.6Si;Cu-Ni-Si alloys;96.8;0;0;0;0;0;1.2;0;0;0;0;0;0;0;0;0;0;1.4;0;0;0;0.6;0;0;0;0;0;1173;1.5;0;Y;873;1;N;210;;;44
Cu-2.25Ni-0.92Si;Cu-Ni-Si alloys;96.83;0;0;0;0;0;0;0;0;0;0;0;0;0;0;0;0;2.25;0;0;0;0.92;0;0;0;0;0;1173;27.77;50;Y;720;1.67;N;300;;;19
Cu-3.44Ni-0.86Si;Cu-Ni-Si alloys;95.7;0;0;0;0;0;0;0;0;0;0;0;0;0;0;0;0;3.44;0;0;0;0.86;0;0;0;0;0;1173;1;0;Y;773;1;N;268;;;43
Cu-1.5Ni-1.5Si;Cu-Ni-Si alloys;97.943;0;0;0;0;0;0;0;0;0;0;0;0;0;0;0;0;1.39;0;0;0;0.67;0;0;0;0;0;1223;1;0;Y;773;0.333333;N;72;;;21
Cu-1.5Ni-1.5Si;Cu-Ni-Si alloys;97.943;0;0;0;0;0;0;0;0;0;0;0;0;0;0;0;0;1.39;0;0;0;0.67;0;0;0;0;0;1223;1;0;Y;773;22.5;N;111;;;32
Cu-2.5Ni-2.5Si;Cu-Ni-Si alloys;96.572;0;0;0;0;0;0;0;0;0;0;0;0;0;0;0;0;2.34;0;0;0;1.09;0;0;0;0;0;1223;1;0;Y;773;2;N;195;;;23
Cu-4.0Ni-4.0Si;Cu-Ni-Si alloys;94.402;0;0;0;0;0;0;0;0;0;0;0;0;0;0;0;0;3.77;0;0;0;1.83;0;0;0;0;0;1223;1;0;Y;773;0.0833333;N;220;;;16
Cu-4.0Ni-4.0Si;Cu-Ni-Si alloys;94.402;0;0;0;0;0;0;0;0;0;0;0;0;0;0;0;0;3.77;0;0;0;1.83;0;0;0;0;0;1223;1;0;Y;773;4;N;177;;;17
Cu-1.5Ni-0.8Si;Cu-Ni-Si alloys;98.283;0;0;0;0;0;0;0;0;0;0;0;0;0;0;0;0;1.38;0;0;0;0.33;0;0;0;0;0;1223;1;0;Y;773;0.166667;N;70;;;31
Cu-1.5Ni-0.8Si;Cu-Ni-Si alloys;98.283;0;0;0;0;0;0;0;0;0;0;0;0;0;0;0;0;1.38;0;0;0;0.33;0;0;0;0;0;1223;1;0;Y;773;8;N;75;;;32
Cu-2.5Ni-1.3Si;Cu-Ni-Si alloys;97.128;0;0;0;0;0;0;0;0;0;0;0;0;0;0;0;0;2.32;0;0;0;0.56;0;0;0;0;0;1223;1;0;Y;773;0.333333;N;186;;;44
Cu-2.5Ni-1.3Si;Cu-Ni-Si alloys;97.128;0;0;0;0;0;0;0;0;0;0;0;0;0;0;0;0;2.32;0;0;0;0.56;0;0;0;0;0;1223;1;0;Y;773;22;N;176;;;36
Cu-4.0Ni-2.0Si;Cu-Ni-Si alloys;95.339;0;0;0;0;0;0;0;0;0;0;0;0;0;0;0;0;3.77;0;0;0;0.89;0;0;0;0;0;1223;1;0;Y;773;1;N;228;;;36
Cu-1.5Ni-0.6Si;Cu-Ni-Si alloys;98.347;0;0;0;0;0;0;0;0;0;0;0;0;0;0;0;0;1.38;0;0;0;0.27;0;0;0;0;0;1223;1;0;Y;773;0.0333333;N;69;;;32
Cu-1.5Ni-0.6Si;Cu-Ni-Si alloys;98.347;0;0;0;0;0;0;0;0;0;0;0;0;0;0;0;0;1.38;0;0;0;0.27;0;0;0;0;0;1223;1;0;Y;773;2;N;68;;;32
Cu-1.5Ni-0.6Si;Cu-Ni-Si alloys;97.24;0;0;0;0;0;0;0;0;0;0;0;0;0;0;0;0;2.31;0;0;0;0.45;0;0;0;0;0;1223;1;0;Y;773;0.0833333;N;125;;;30
Cu-1.5Ni-0.6Si;Cu-Ni-Si alloys;97.24;0;0;0;0;0;0;0;0;0;0;0;0;0;0;0;0;2.31;0;0;0;0.45;0;0;0;0;0;1223;1;0;Y;773;4;N;178;;;45
Cu-4.0Ni-1.6Si;Cu-Ni-Si alloys;95.518;0;0;0;0;0;0;0;0;0;0;0;0;0;0;0;0;3.78;0;0;0;0.71;0;0;0;0;0;1223;1;0;Y;773;0.166667;N;184;;;34
Cu-4.0Ni-1.6Si;Cu-Ni-Si alloys;95.518;0;0;0;0;0;0;0;0;0;0;0;0;0;0;0;0;3.78;0;0;0;0.71;0;0;0;0;0;1223;1;0;Y;773;8;N;134;;;51
Cu-1.5Ni-0.5Si;Cu-Ni-Si alloys;98.393;0;0;0;0;0;0;0;0;0;0;0;0;0;0;0;0;1.39;0;0;0;0.22;0;0;0;0;0;1223;1;0;Y;773;0.333333;N;60;;;36
Cu-1.5Ni-0.5Si;Cu-Ni-Si alloys;98.393;0;0;0;0;0;0;0;0;0;0;0;0;0;0;0;0;1.39;0;0;0;0.22;0;0;0;0;0;1223;1;0;Y;773;22;N;64;;;36
Cu-2.5Ni-0.8Si;Cu-Ni-Si alloys;93.886;0;0;0;0;0;0;0;0;0;0;0;0;0;0;0;0;2.3;0;0;0;3.81;0;0;0;0;0;1223;1;0;Y;773;1;N;165;;;44
Cu-4.0Ni-1.3Si;Cu-Ni-Si alloys;95.627;0;0;0;0;0;0;0;0;0;0;0;0;0;0;0;0;3.76;0;0;0;0.61;0;0;0;0;0;1223;1;0;Y;773;0.0333333;N;175;;;29
Cu-4.0Ni-1.3Si;Cu-Ni-Si alloys;95.627;0;0;0;0;0;0;0;0;0;0;0;0;0;0;0;0;3.76;0;0;0;0.61;0;0;0;0;0;1223;1;0;Y;773;2;N;205;;;39
Cu-2.3Ni-0.7Si-0.7Co;Cu-Ni-Si alloys;96.3;0;0;0;0;0;0.7;0;0;0;0;0;0;0;0;0;0;2.3;0;0;0;0.7;0;0;0;0;0;1223;3;0;Y;723;4;N;258;;;45
Cu-2.8Ni-0.7Si;Cu-Ni-Si alloys;96.5;0;0;0;0;0;0;0;0;0;0;0;0;0;0;0;0;2.8;0;0;0;0.7;0;0;0;0;0;1223;2;75;Y;673;10;Y;120;;;32
Cu-2.8Ni-0.7Si;Cu-Ni-Si alloys;96.5;0;0;0;0;0;0;0;0;0;0;0;0;0;0;0;0;2.8;0;0;0;0.7;0;0;0;0;0;1223;2;75;Y;723;5;Y;127;;;29
Cu-2.8Ni-0.7Si;Cu-Ni-Si alloys;96.5;0;0;0;0;0;0;0;0;0;0;0;0;0;0;0;0;2.8;0;0;0;0.7;0;0;0;0;0;1223;2;75;Y;773;3;Y;175;;;35
Cu-2.8Ni-0.7Si-0.086V;Cu-Ni-Si alloys;96.414;0;0;0;0;0;0;0;0;0;0;0;0;0;0;0;0;2.8;0;0;0;0.7;0;0;0.09;0;0;1223;2;75;N;;;Y;81;;;23
Cu-2.8Ni-0.7Si-0.086V;Cu-Ni-Si alloys;96.414;0;0;0;0;0;0;0;0;0;0;0;0;0;0;0;0;2.8;0;0;0;0.7;0;0;0.09;0;0;1223;2;75;Y;673;20;Y;117;;;34
Cu-2.8Ni-0.7Si-0.086V;Cu-Ni-Si alloys;96.414;0;0;0;0;0;0;0;0;0;0;0;0;0;0;0;0;2.8;0;0;0;0.7;0;0;0.09;0;0;1223;2;75;Y;723;10;Y;157;;;36
Cu-2.8Ni-0.7Si-0.086V;Cu-Ni-Si alloys;96.414;0;0;0;0;0;0;0;0;0;0;0;0;0;0;0;0;2.8;0;0;0;0.7;0;0;0.09;0;0;1223;2;75;Y;773;5;Y;175;;;36
Cu-2.8Ni-0.7Si-0.17V;Cu-Ni-Si alloys;96.33;0;0;0;0;0;0;0;0;0;0;0;0;0;0;0;0;2.8;0;0;0;0.7;0;0;0.17;0;0;1223;2;75;Y;673;1;Y;98;;;25
Cu-2.8Ni-0.7Si-0.17V;Cu-Ni-Si alloys;96.33;0;0;0;0;0;0;0;0;0;0;0;0;0;0;0;0;2.8;0;0;0;0.7;0;0;0.17;0;0;1223;2;75;Y;673;40;Y;137;;;30
Cu-2.8Ni-0.7Si-0.17V;Cu-Ni-Si alloys;96.33;0;0;0;0;0;0;0;0;0;0;0;0;0;0;0;0;2.8;0;0;0;0.7;0;0;0.17;0;0;1223;2;75;Y;723;20;Y;167;;;37
Cu-2.8Ni-0.7Si-0.17V;Cu-Ni-Si alloys;96.33;0;0;0;0;0;0;0;0;0;0;0;0;0;0;0;0;2.8;0;0;0;0.7;0;0;0.17;0;0;1223;2;75;Y;773;10;Y;169;;;45
Cu-3.2Ni-0.7Si-0.3Zn;Cu-Ni-Si alloys;95.8;0;0;0;0;0;0;0;0;0;0;0;0;0;0;0;0;3.2;0;0;0;0.7;0;0;0;0.3;0;1173;2;75;Y;723;2;N;208;;;42
Cu-3.2Ni-0.7Si-0.3Zn;Cu-Ni-Si alloys;95.8;0;0;0;0;0;0;0;0;0;0;0;0;0;0;0;0;3.2;0;0;0;0.7;0;0;0;0.3;0;1173;2;75;Y;723;64;N;121;;;58
Cu-3.2Ni-0.7Si-0.3Zn;Cu-Ni-Si alloys;95.8;0;0;0;0;0;0;0;0;0;0;0;0;0;0;0;0;3.2;0;0;0;0.7;0;0;0;0.3;0;1173;2;0;Y;723;2;N;197;;;28
Cu-3.2Ni-0.7Si-0.3Zn;Cu-Ni-Si alloys;95.8;0;0;0;0;0;0;0;0;0;0;0;0;0;0;0;0;3.2;0;0;0;0.7;0;0;0;0.3;0;1173;2;0;Y;723;64;N;208;;;44
Cu-3.2Ni-0.7Si-0.3Zn;Cu-Ni-Si alloys;95.8;0;0;0;0;0;0;0;0;0;0;0;0;0;0;0;0;3.2;0;0;0;0.7;0;0;0;0.3;0;1173;2;0;Y;773;2;N;191;;;49
Cu-3.2Ni-0.7Si-0.3Zn;Cu-Ni-Si alloys;95.8;0;0;0;0;0;0;0;0;0;0;0;0;0;0;0;0;3.2;0;0;0;0.7;0;0;0;0.3;0;1173;2;70;Y;673;1;Y;179;;;53
Cu-3.2Ti;Cu-Ti alloys;96.8;0;0;0;0;0;0;0;0;0;0;0;0;0;0;0;0;0;0;0;0;0;0;3.2;0;0;0;1223;0.25;60;Y;623;12;N;;;1049;11
Cu-3.2Ti;Cu-Ti alloys;96.8;0;0;0;0;0;0;0;0;0;0;0;0;0;0;0;0;0;0;0;0;0;0;3.2;0;0;0;1223;0.25;60;Y;623;168;N;;;997;32
Cu-3.2Ti;Cu-Ti alloys;96.8;0;0;0;0;0;0;0;0;0;0;0;0;0;0;0;0;0;0;0;0;0;0;3.2;0;0;0;1223;0.25;15;Y;653;24;N;;;837;10
Cu-3.2Ti;Cu-Ti alloys;96.8;0;0;0;0;0;0;0;0;0;0;0;0;0;0;0;0;0;0;0;0;0;0;3.2;0;0;0;1223;0.25;30;Y;653;6;N;;;901;8
Cu-3.2Ti;Cu-Ti alloys;96.8;0;0;0;0;0;0;0;0;0;0;0;0;0;0;0;0;0;0;0;0;0;0;3.2;0;0;0;1223;0.25;30;Y;653;144;N;;;878;24
Cu-3.2Ti;Cu-Ti alloys;96.8;0;0;0;0;0;0;0;0;0;0;0;0;0;0;0;0;0;0;0;0;0;0;3.2;0;0;0;1223;0.25;60;Y;653;48;N;;;889;29
Cu-2.7Ti-0.15Mg-0.1Ce-0.1Zr;Cu-Ti alloys;96.95;0;0;0;0;0;0;0.1;0;0;0;0;0.15;0;0;0;0;0;0;0;0;0;0;2.7;0;0;0.1;1123;2;0;Y;673;4;N;216;;;12
Cu-2.7Ti-0.15Mg-0.1Ce-0.1Zr;Cu-Ti alloys;96.95;0;0;0;0;0;0;0.1;0;0;0;0;0.15;0;0;0;0;0;0;0;0;0;0;2.7;0;0;0.1;1123;2;90;Y;673;2;N;322;;;13
Cu-2.7Ti-0.15Mg-0.1Ce-0.1Zr;Cu-Ti alloys;96.95;0;0;0;0;0;0;0.1;0;0;0;0;0.15;0;0;0;0;0;0;0;0;0;0;2.7;0;0;0.1;1123;2;90;Y;673;12;N;299;833;892;20
Cu-2.7Ti-0.15Mg-0.1Ce-0.1Zr;Cu-Ti alloys;96.95;0;0;0;0;0;0;0.1;0;0;0;0;0.15;0;0;0;0;0;0;0;0;0;0;2.7;0;0;0.1;1123;2;50;Y;673;16;Y;302;;;21
Cu-2.7Ti-0.15Mg-0.1Ce-0.1Zr;Cu-Ti alloys;96.95;0;0;0;0;0;0;0.1;0;0;0;0;0.15;0;0;0;0;0;0;0;0;0;0;2.7;0;0;0.1;1123;2;70;Y;673;16;Y;307;;;21
Cu-2.7Ti-0.15Mg-0.1Ce-0.1Zr;Cu-Ti alloys;96.95;0;0;0;0;0;0;0.1;0;0;0;0;0.15;0;0;0;0;0;0;0;0;0;0;2.7;0;0;0.1;1123;2;90;Y;673;16;Y;303;;;25
Cu-2.7Ti-0.15Mg-0.1Ce-0.1Zr;Cu-Ti alloys;96.95;0;0;0;0;0;0;0.1;0;0;0;0;0.15;0;0;0;0;0;0;0;0;0;0;2.7;0;0;0.1;1123;2;90;Y;723;16;N;355;950;1000;12
Cu-2.7Ti;Cu-Ti alloys;97.3;0;0;0;0;0;0;0;0;0;0;0;0;0;0;0;0;0;0;0;0;0;0;2.7;0;0;0;1173;2;0;Y;723;16;N;275;460;680;17
Cu-4.3Ti;Cu-Ti alloys;95.7;0;0;0;0;0;0;0;0;0;0;0;0;0;0;0;0;0;0;0;0;0;0;4.3;0;0;0;1173;2;0;N;;;N;130;;480;3
Cu-1.5Ti;Cu-Ti alloys;98.5;0;0;0;0;0;0;0;0;0;0;0;0;0;0;0;0;0;0;0;0;0;0;1.5;0;0;0;1173;2;90;Y;673;6;N;280;670;760;22
Cu-6.16Ti-0.33Cr-0.16Mg-0.44Fe;Cu-Ti alloys;92.91;0;0;0;0;0;0;0;0.33;0;0;0;0.16;0;0;0;0;0;0;0;0;0;0;6.16;0;0;0.44;1123;24;0;Y;723;4;N;324;;;7
Cu-3Ti-2Mg;Cu-Ti alloys;95;0;0;0;0;0;0;0;0;0;0;0;2;0;0;0;0;0;0;0;0;0;0;3;0;0;0;1023;4;70;Y;723;0;N;279;;217;4
Cu-3Ti-2Mg;Cu-Ti alloys;95;0;0;0;0;0;0;0;0;0;0;0;2;0;0;0;0;0;0;0;0;0;0;3;0;0;0;1023;4;0;N;;;N;160;;;5
Cu-1.95Be;Cu-Be alloys;92.95;0;0;0;1.95;0;0;0;0;0;0;0;2;0;0;0;0;0.1;0;0;0;0;0;3;0;0;0;1193;;0;Y;593;2;N;345;1152;1364;17
Cu-1.95Be;Cu-Be alloys;92.95;0;0;0;1.95;0;0;0;0;0;0;0;2;0;0;0;0;0.1;0;0;0;0;0;3;0;0;0;1193;;0;Y;593;12;N;352;1125;1306;24
Cu-1.7Be;Cu-Be alloys;92.57;0.13;0;0;1.66;0;0;0;0;0;0;0;2;0;0;0;0;0.33;0;0;0;0.31;0;3;0;0;0;1053;0.17;0;Y;573;1;N;328;;;19
Cu-1.7Be;Cu-Be alloys;92.57;0.13;0;0;1.66;0;0;0;0;0;0;0;2;0;0;0;0;0.33;0;0;0;0.31;0;3;0;0;0;1053;0.17;0;Y;573;16;N;401;;;23
Cu-1.7Be;Cu-Be alloys;92.57;0.13;0;0;1.66;0;0;0;0;0;0;0;2;0;0;0;0;0.33;0;0;0;0.31;0;3;0;0;0;1053;0.17;0;Y;598;3;N;375;779;1050;22
Cu-1.7Be;Cu-Be alloys;92.57;0.13;0;0;1.66;0;0;0;0;0;0;0;2;0;0;0;0;0.33;0;0;0;0.31;0;3;0;0;0;1053;0.17;0;Y;623;0.5;N;341;;;21
Cu-1.7Be;Cu-Be alloys;92.57;0.13;0;0;1.66;0;0;0;0;0;0;0;2;0;0;0;0;0.33;0;0;0;0.31;0;3;0;0;0;1053;0.17;0;Y;623;8;N;300;;;29
Cu-1.7Be;Cu-Be alloys;92.57;0.13;0;0;1.66;0;0;0;0;0;0;0;2;0;0;0;0;0.33;0;0;0;0.31;0;3;0;0;0;1053;0.17;0;Y;648;2;N;329;;;27
Cu-2Be;Cu-Be alloys;98;0;0;0;2;0;0;0;0;0;0;0;0;0;0;0;0;0;0;0;0;0;0;0;0;0;0;1073;;0;Y;593;0;N;;211;502;13
Cu-2Be;Cu-Be alloys;98;0;0;0;2;0;0;0;0;0;0;0;0;0;0;0;0;0;0;0;0;0;0;0;0;0;0;1073;;0;Y;593;16;N;;1070;1225;24